timestamp_s,ax,ay,az,gx,gy,gz,pos_x,pos_y,pos_z,vel_x,vel_y,vel_z,speed_mps,speed_kmh,heading_deg
0.0,-0.2316,1.3893,10.2436,-0.0024,0.00314,-0.00184,0.0,0.0,0.0,0.0,0.015,0.0,0.015,0.05,0.0
0.01,-0.4408,1.7103,9.8479,-0.00071,0.00548,-0.00404,0.0,0.0,0.0,0.0,0.03,0.0,0.03,0.11,0.0
0.02,0.5167,1.4923,9.2777,0.00218,-0.00221,0.00545,0.0,0.001,0.0,0.0,0.045,0.001,0.045,0.16,0.0
0.03,0.3417,1.5879,9.961,0.0027,0.00621,-0.0096,0.0,0.002,0.0,0.0,0.06,0.001,0.06,0.22,0.0
0.04,-0.2024,1.3459,9.2332,-0.00203,-0.00949,-0.00152,0.0,0.002,0.0,0.0,0.075,0.001,0.075,0.27,0.0
0.05,-0.1674,1.5063,10.0811,0.00191,-0.01081,-0.00337,0.0,0.003,0.0,0.0,0.09,0.001,0.09,0.32,0.0
0.06,-0.2197,1.7758,9.9318,0.00826,0.00345,0.00205,0.0,0.004,0.0,0.0,0.105,0.001,0.105,0.38,0.0
0.07,-0.1845,1.6021,9.6917,-0.00772,0.00372,-0.00194,0.0,0.005,0.0,0.0,0.12,0.002,0.12,0.43,0.0
0.08,-0.2838,1.856,9.6168,0.0009,-0.00081,0.00677,0.0,0.007,0.0,0.0,0.135,0.002,0.135,0.49,0.0
0.09,-0.1307,1.8444,9.3738,0.00268,-0.00887,0.0019,0.0,0.008,0.0,0.0,0.15,0.002,0.15,0.54,0.0
0.1,0.1675,1.4165,9.3614,-0.0024,0.00497,0.00457,0.0,0.01,0.0,0.0,0.165,0.002,0.165,0.59,0.0
0.11,-0.0218,1.4075,10.594,-0.00602,9e-05,-0.00431,0.0,0.012,0.0,0.0,0.18,0.003,0.18,0.65,0.0
0.12,-0.2542,1.4264,9.4186,-0.00288,-0.00444,0.00259,0.0,0.014,0.0,0.0,0.195,0.003,0.195,0.7,0.0
0.13,0.4438,1.8077,9.6023,0.01023,-0.0021,-0.00282,0.0,0.016,0.0,0.0,0.21,0.003,0.21,0.76,0.0
0.14,0.165,1.4274,9.8921,0.00113,0.00746,-0.00078,0.0,0.018,0.0,0.0,0.225,0.003,0.225,0.81,0.0
0.15,-0.106,1.4997,9.8455,-0.00259,-0.00416,0.00345,0.0,0.02,0.0,0.0,0.24,0.004,0.24,0.86,0.0
0.16,-0.3445,1.6559,10.1377,-0.00371,-0.00255,0.00108,0.0,0.023,0.0,0.0,0.255,0.004,0.255,0.92,0.0
0.17,-0.2945,1.614,9.5487,0.00284,0.00511,0.00077,0.0,0.026,0.0,0.0,0.27,0.004,0.27,0.97,0.0
0.18,0.2847,1.5879,10.1006,-0.00523,0.0033,-0.00499,0.0,0.029,0.0,0.0,0.285,0.004,0.285,1.03,0.0
0.19,0.3991,1.6227,9.6969,0.00144,0.00194,-0.00249,0.0,0.032,0.0,0.0,0.3,0.005,0.3,1.08,0.0
0.2,-0.2706,1.1877,9.8446,0.0093,-0.00147,-0.00311,0.0,0.035,0.001,0.0,0.315,0.005,0.315,1.13,0.0
0.21,0.5127,1.5498,9.8834,0.00249,0.00079,9e-05,0.0,0.038,0.001,0.0,0.33,0.005,0.33,1.19,0.0
0.22,-0.066,1.3942,9.8768,-0.00213,-0.00156,0.0047,0.0,0.041,0.001,0.0,0.345,0.005,0.345,1.24,0.0
0.23,0.0729,1.5317,9.9693,-0.0055,-0.00762,-0.00667,0.0,0.045,0.001,0.0,0.36,0.006,0.36,1.3,0.0
0.24,-0.1686,1.4223,9.5508,0.00529,0.00514,0.0002,0.0,0.049,0.001,0.0,0.375,0.006,0.375,1.35,0.0
0.25,-0.0502,1.624,9.6367,-0.00794,0.00571,0.00153,0.0,0.053,0.001,0.0,0.39,0.006,0.39,1.4,0.0
0.26,0.1423,1.5489,10.5165,0.00227,-0.00242,-0.00554,0.0,0.057,0.001,0.0,0.405,0.006,0.405,1.46,0.0
0.27,0.1516,1.496,9.6441,0.005,-0.00034,0.00826,0.0,0.061,0.001,0.0,0.42,0.007,0.42,1.51,0.0
0.28,0.3778,1.5594,9.5271,0.0037,0.00943,0.00172,0.0,0.065,0.001,0.0,0.435,0.007,0.435,1.57,0.0
0.29,-0.2246,1.8557,9.6054,-0.00026,-0.00386,0.00757,0.0,0.07,0.001,0.0,0.45,0.007,0.45,1.62,0.0
0.3,-0.061,1.4701,10.3482,-0.00164,0.00394,0.00322,0.0,0.074,0.001,0.0,0.465,0.007,0.465,1.67,0.0
0.31,-0.2694,1.4402,9.341,0.00511,0.00176,0.00434,0.0,0.079,0.001,0.0,0.48,0.008,0.48,1.73,0.0
0.32,0.687,1.5388,9.1809,0.00488,0.00514,-0.00968,0.0,0.084,0.001,0.0,0.495,0.008,0.495,1.78,0.0
0.33,0.2829,1.202,9.7544,-0.00051,-0.00536,0.0111,0.0,0.089,0.001,0.0,0.51,0.008,0.51,1.84,0.0
0.34,0.039,1.5606,9.4568,0.00381,-0.0043,0.00442,0.0,0.095,0.001,0.0,0.525,0.008,0.525,1.89,0.0
0.35,0.0306,1.6305,10.0687,0.00355,0.00256,0.00108,0.0,0.1,0.002,0.0,0.54,0.009,0.54,1.94,0.0
0.36,-0.3125,1.3961,9.7146,0.00984,0.00348,0.00043,0.0,0.105,0.002,0.0,0.555,0.009,0.555,2.0,0.0
0.37,0.169,1.7441,9.3744,-0.00728,0.00503,-0.00526,0.0,0.111,0.002,0.0,0.57,0.009,0.57,2.05,0.0
0.38,-0.0316,1.5573,10.0543,0.00314,0.00287,0.00185,0.0,0.117,0.002,0.0,0.585,0.009,0.585,2.11,0.0
0.39,0.0037,1.2812,9.8012,-0.00803,-0.00186,-0.00227,0.0,0.123,0.002,0.0,0.6,0.01,0.6,2.16,0.0
0.4,-0.4761,1.8158,9.321,-0.00446,-0.001,0.00099,0.0,0.129,0.002,0.0,0.615,0.01,0.615,2.21,0.0
0.41,0.0666,1.1013,10.3177,0.00533,-0.00403,-0.0036,0.0,0.135,0.002,0.0,0.63,0.01,0.63,2.27,0.0
0.42,-0.2052,1.5871,9.7346,-0.00185,0.00227,0.00377,0.0,0.142,0.002,0.0,0.645,0.01,0.645,2.32,0.0
0.43,0.4027,1.4075,9.4325,-0.00889,0.00939,0.00786,0.0,0.149,0.002,0.0,0.66,0.011,0.66,2.38,0.0
0.44,-0.0808,1.4673,10.1355,0.00064,-0.01092,-0.00397,0.0,0.155,0.002,0.0,0.675,0.011,0.675,2.43,0.0
0.45,0.0705,1.3771,10.175,0.00036,0.01075,0.00125,0.0,0.162,0.003,0.0,0.69,0.011,0.69,2.48,0.0
0.46,0.4632,1.6957,10.234,-0.00454,0.00561,0.00236,0.0,0.169,0.003,0.0,0.705,0.011,0.705,2.54,0.0
0.47,-0.0402,1.1491,10.0348,0.0033,-0.00483,0.00572,0.0,0.176,0.003,0.0,0.72,0.012,0.72,2.59,0.0
0.48,0.1882,1.4243,9.5809,0.00462,0.01037,-0.00922,0.0,0.184,0.003,0.0,0.735,0.012,0.735,2.65,0.0
0.49,0.0256,1.666,9.8862,-0.00122,0.0001,-0.00834,0.0,0.191,0.003,0.0,0.75,0.012,0.75,2.7,0.0
0.5,0.0528,1.4645,10.0319,-0.00591,-0.00956,0.00036,0.0,0.199,0.003,0.0,0.765,0.012,0.765,2.75,0.0
0.51,-0.3996,1.3163,9.8511,0.00469,-0.00378,-0.00955,0.0,0.207,0.003,0.0,0.78,0.013,0.78,2.81,0.0
0.52,-0.323,1.2916,9.4035,0.01068,0.00078,-0.00021,0.0,0.215,0.003,0.0,0.795,0.013,0.795,2.86,0.0
0.53,0.039,1.5893,9.87,0.00646,-0.00146,0.00016,0.0,0.223,0.004,0.0,0.81,0.013,0.81,2.92,0.0
0.54,-0.0125,1.4371,10.4541,0.00704,-0.00053,0.00175,0.0,0.231,0.004,0.0,0.825,0.013,0.825,2.97,0.0
0.55,0.3284,1.3747,10.2764,0.00377,0.00518,-0.00865,0.0,0.239,0.004,0.0,0.84,0.014,0.84,3.02,0.0
0.56,0.3444,1.5293,10.3086,0.00113,-0.00677,0.00058,0.0,0.248,0.004,0.0,0.855,0.014,0.855,3.08,0.0
0.57,-0.0889,1.4254,9.6701,0.00682,-0.00116,0.01154,0.0,0.257,0.004,0.0,0.87,0.014,0.87,3.13,0.0
0.58,-0.3073,1.2912,9.8109,-0.00248,-0.00509,-0.00981,0.0,0.266,0.004,0.0,0.885,0.014,0.885,3.19,0.0
0.59,0.1435,1.6462,9.7205,-0.00191,-0.00032,-0.00272,0.0,0.275,0.004,0.0,0.9,0.015,0.9,3.24,0.0
0.6,-0.2512,1.6753,9.7478,-0.00029,0.00312,0.00216,0.0,0.284,0.005,0.0,0.915,0.015,0.915,3.29,0.0
0.61,-0.3887,1.469,9.603,-0.00441,-0.00158,0.00815,0.0,0.293,0.005,0.0,0.93,0.015,0.93,3.35,0.0
0.62,0.1305,1.6701,9.7599,-0.00721,-0.00226,-0.00657,0.0,0.302,0.005,0.0,0.945,0.015,0.945,3.4,0.0
0.63,-0.0267,1.6172,9.556,-0.01081,0.00547,-0.00276,0.0,0.312,0.005,0.0,0.96,0.015,0.96,3.46,0.0
0.64,0.0999,1.3027,9.7864,-0.00118,0.01035,0.0062,0.0,0.322,0.005,0.0,0.975,0.016,0.975,3.51,0.0
0.65,0.2522,1.7845,10.0311,-0.00083,-0.00846,-2e-05,0.0,0.332,0.005,0.0,0.99,0.016,0.99,3.56,0.0
0.66,0.0081,1.5875,9.7385,0.00702,-0.00057,0.00348,0.0,0.342,0.005,0.0,1.005,0.016,1.005,3.62,0.0
0.67,0.0571,1.628,9.7056,0.00364,0.0061,-0.00239,0.0,0.352,0.006,0.0,1.02,0.016,1.02,3.67,0.0
0.68,-0.0135,1.6414,10.2723,-0.00334,0.00065,-0.00706,0.0,0.362,0.006,0.0,1.035,0.017,1.035,3.73,0.0
0.69,0.2304,1.3561,10.1191,0.00488,0.00398,-0.00741,0.0,0.373,0.006,0.0,1.05,0.017,1.05,3.78,0.0
0.7,0.2301,1.7595,9.1898,0.01623,0.00248,0.00455,0.0,0.383,0.006,0.0,1.065,0.017,1.065,3.83,0.0
0.71,0.0785,1.3504,9.7886,0.00181,-0.00519,0.01218,0.0,0.394,0.006,0.0,1.08,0.017,1.08,3.89,0.0
0.72,0.0481,1.422,10.3084,-0.00253,-0.00238,-0.00032,0.0,0.405,0.006,0.0,1.095,0.018,1.095,3.94,0.0
0.73,0.0026,1.4735,9.8793,0.00046,-0.00847,0.00429,0.0,0.416,0.007,0.0,1.11,0.018,1.11,4.0,0.0
0.74,0.2877,1.7129,9.5025,-0.00899,-0.00171,0.00067,0.0,0.428,0.007,0.0,1.125,0.018,1.125,4.05,0.0
0.75,-0.0083,1.57,9.4192,0.00299,-0.00162,0.00731,0.0,0.439,0.007,0.0,1.14,0.018,1.14,4.1,0.0
0.76,0.0606,1.5096,10.0688,-0.00514,0.00304,0.00366,0.0,0.45,0.007,0.0,1.155,0.019,1.155,4.16,0.0
0.77,0.1278,1.2356,9.9243,-0.01031,0.0009,-0.00038,0.0,0.462,0.007,0.0,1.17,0.019,1.17,4.21,0.0
0.78,0.0804,1.4937,9.6145,0.005,0.00895,0.00304,0.0,0.474,0.008,0.0,1.185,0.019,1.185,4.27,0.0
0.79,-0.0887,1.6712,9.644,0.00588,-0.00276,0.00138,0.0,0.486,0.008,0.0,1.2,0.019,1.2,4.32,0.0
0.8,-0.2596,1.6392,9.9088,-0.0019,0.0003,0.00749,0.0,0.498,0.008,0.0,1.215,0.019,1.215,4.37,0.0
0.81,0.036,1.7915,9.4558,0.00289,-0.00011,0.01519,0.0,0.51,0.008,0.0,1.23,0.02,1.23,4.43,0.0
0.82,-0.135,1.4604,9.6902,-0.00571,-0.00584,-0.00856,0.0,0.523,0.008,0.0,1.245,0.02,1.245,4.48,0.0
0.83,0.1047,1.2738,9.8776,0.00498,0.00654,-0.007,0.0,0.536,0.009,0.0,1.26,0.02,1.26,4.54,0.0
0.84,0.0434,1.239,10.5384,-0.00269,0.00755,-0.00471,0.0,0.548,0.009,0.0,1.275,0.02,1.275,4.59,0.0
0.85,0.2224,1.7121,10.158,0.00586,-0.00076,0.00118,0.0,0.561,0.009,0.0,1.29,0.021,1.29,4.64,0.0
0.86,-0.1417,1.3056,9.6978,0.00208,-0.00147,0.00466,0.0,0.574,0.009,0.0,1.305,0.021,1.305,4.7,0.0
0.87,0.2925,1.4908,10.1292,0.00347,0.00061,0.00517,0.0,0.587,0.009,0.0,1.32,0.021,1.32,4.75,0.0
0.88,-0.1419,1.8139,10.1942,0.00042,0.0134,-0.00326,0.0,0.601,0.01,0.0,1.335,0.021,1.335,4.81,0.0
0.89,-0.6207,1.7888,9.6282,-0.00071,-0.00552,-0.01359,0.0,0.614,0.01,0.0,1.35,0.022,1.35,4.86,0.0
0.9,-0.5385,1.5726,9.6029,-0.01489,0.00163,2e-05,0.0,0.628,0.01,0.0,1.365,0.022,1.365,4.91,0.0
0.91,-0.2705,1.3831,9.7711,0.00733,-0.00247,0.00276,0.0,0.642,0.01,0.0,1.38,0.022,1.38,4.97,0.0
0.92,-0.4286,1.1692,10.2005,-0.00679,0.00995,-0.00036,0.0,0.656,0.011,0.0,1.395,0.022,1.395,5.02,0.0
0.93,0.2487,1.4545,10.416,-0.00037,0.00768,-0.00273,0.0,0.67,0.011,0.0,1.41,0.022,1.41,5.08,0.0
0.94,-0.1141,1.8724,9.2535,0.00132,0.00267,-0.00909,0.0,0.684,0.011,0.0,1.425,0.023,1.425,5.13,0.0
0.95,0.1932,1.5247,9.533,-0.00514,0.00581,-0.0065,0.0,0.698,0.011,0.0,1.44,0.023,1.44,5.18,0.0
0.96,-0.0504,1.4619,9.4861,0.00039,-0.01001,-0.00669,0.0,0.713,0.011,0.0,1.455,0.023,1.455,5.24,0.0
0.97,0.2665,1.3436,9.8748,0.00189,-0.0032,0.00242,0.0,0.728,0.012,0.0,1.47,0.023,1.47,5.29,0.0
0.98,-0.059,1.3971,9.7778,0.00024,-0.00431,-0.0038,0.0,0.742,0.012,0.0,1.485,0.024,1.485,5.35,0.0
0.99,-0.0006,1.3803,9.5552,0.00294,-0.008,-0.00116,0.0,0.758,0.012,0.0,1.5,0.024,1.5,5.4,0.0
1.0,-0.6245,1.6726,9.3565,0.00309,0.00412,0.00097,0.0,0.773,0.012,0.0,1.515,0.024,1.515,5.45,0.0
1.01,0.0767,1.1555,9.3846,-0.00228,-0.00873,0.00375,0.0,0.788,0.013,0.0,1.53,0.024,1.53,5.51,0.0
1.02,-0.1197,1.8545,9.5617,0.00562,-0.00672,-0.0017,0.0,0.803,0.013,0.0,1.545,0.024,1.545,5.56,0.0
1.03,0.4255,1.513,9.1834,-0.00733,-0.00164,-0.00147,0.0,0.819,0.013,0.0,1.56,0.025,1.56,5.62,0.0
1.04,-0.2369,1.569,9.9395,-0.00807,0.01292,0.00252,0.0,0.835,0.013,0.0,1.575,0.025,1.575,5.67,0.0
1.05,-0.1306,1.4245,9.8367,0.00232,0.00943,-0.00435,0.0,0.851,0.014,0.0,1.59,0.025,1.59,5.72,0.0
1.06,-0.0477,1.421,10.2639,0.00356,0.00051,-0.00036,0.0,0.867,0.014,0.0,1.605,0.025,1.605,5.78,0.0
1.07,0.1394,1.5311,10.1514,-0.00161,0.00236,-0.00088,0.0,0.883,0.014,0.0,1.62,0.025,1.62,5.83,0.0
1.08,-0.1632,1.5137,10.1237,-0.00386,-0.00716,0.0061,0.0,0.899,0.014,0.0,1.635,0.026,1.635,5.89,0.0
1.09,0.2894,1.7603,9.76,-0.00672,-0.00144,-0.00297,0.0,0.916,0.015,0.0,1.65,0.026,1.65,5.94,0.0
1.1,-0.4461,1.5218,9.8855,0.00586,-0.00156,-0.00338,0.0,0.932,0.015,0.0,1.665,0.026,1.665,5.99,0.0
1.11,-0.5991,1.4991,9.8357,0.00089,-0.00138,-0.00476,0.0,0.949,0.015,0.0,1.68,0.026,1.68,6.05,0.0
1.12,-0.2115,1.5934,9.644,-0.00468,-0.00316,0.00547,0.0,0.966,0.015,0.0,1.695,0.027,1.695,6.1,0.0
1.13,-0.2643,1.7107,10.0744,-0.00485,0.00337,-0.00653,0.0,0.983,0.016,0.0,1.71,0.027,1.71,6.16,0.0
1.14,-0.3027,1.5483,9.682,-0.00083,0.00861,-0.00036,0.0,1.0,0.016,0.0,1.725,0.027,1.725,6.21,0.0
1.15,0.1455,1.5904,9.3128,9e-05,-0.00036,-0.00657,0.0,1.018,0.016,0.0,1.74,0.027,1.74,6.26,0.0
1.16,0.1712,1.4455,10.1825,0.0007,-0.00709,-0.00114,0.0,1.035,0.016,0.0,1.755,0.027,1.755,6.32,0.0
1.17,-0.2137,1.3889,9.9986,0.00588,-0.00043,0.00198,0.0,1.053,0.017,0.0,1.77,0.028,1.77,6.37,0.0
1.18,-0.0808,1.5657,10.3618,-0.00621,-0.00113,-0.00428,0.0,1.071,0.017,0.0,1.785,0.028,1.785,6.43,0.0
1.19,-0.0426,1.9101,10.0646,-0.00031,0.00011,0.00103,0.0,1.089,0.017,0.0,1.8,0.028,1.8,6.48,0.0
1.2,0.3757,1.5473,10.222,0.00966,0.00016,0.00654,0.0,1.107,0.018,0.0,1.815,0.028,1.815,6.53,0.0
1.21,-0.4694,1.4751,9.5952,-0.01132,0.00219,-0.0028,0.0,1.125,0.018,0.0,1.83,0.028,1.83,6.59,0.0
1.22,-0.1161,1.7611,10.2156,0.00237,-0.006,0.00619,0.0,1.144,0.018,0.0,1.845,0.029,1.845,6.64,0.0
1.23,-0.0904,1.4046,10.3262,0.00217,-0.00283,0.01062,0.0,1.162,0.018,0.0,1.86,0.029,1.86,6.7,0.0
1.24,-0.1053,1.6125,9.5337,-0.00552,-0.00446,-0.00188,0.0,1.181,0.019,0.0,1.875,0.029,1.875,6.75,0.0
1.25,-0.1559,1.5706,9.8865,-0.00047,-0.00147,-0.00186,0.0,1.2,0.019,0.0,1.89,0.029,1.89,6.8,0.0
1.26,0.268,1.6361,9.6176,-0.00558,0.0054,-0.00072,0.0,1.219,0.019,0.0,1.905,0.029,1.905,6.86,0.0
1.27,0.2634,1.6877,9.6746,-0.00024,-0.00191,0.00067,0.0,1.238,0.02,0.0,1.92,0.03,1.92,6.91,0.0
1.28,-0.0183,1.515,9.6071,-0.00709,0.00112,0.00125,0.0,1.258,0.02,0.0,1.935,0.03,1.935,6.97,0.0
1.29,0.1712,1.754,10.3093,0.00417,-0.00576,0.00072,0.0,1.277,0.02,0.0,1.95,0.03,1.95,7.02,0.0
1.3,-0.2034,1.1502,9.8512,0.00067,0.00283,-0.00106,0.0,1.297,0.021,0.0,1.965,0.03,1.965,7.07,0.0
1.31,0.5006,1.5115,9.8897,0.00037,-0.00073,-0.00482,0.0,1.317,0.021,0.0,1.98,0.03,1.98,7.13,0.0
1.32,-0.6342,1.4277,9.7637,-0.0008,0.00095,-0.0005,0.0,1.337,0.021,0.0,1.995,0.031,1.995,7.18,0.0
1.33,-0.103,1.5346,9.5463,-0.00421,-0.00099,-0.00761,0.0,1.357,0.021,0.0,2.01,0.031,2.01,7.24,0.0
1.34,0.1868,1.1226,10.4948,-0.00095,-0.0005,0.00704,0.0,1.377,0.022,0.0,2.025,0.031,2.025,7.29,0.0
1.35,-0.2423,1.5649,9.7591,-0.00541,-0.00867,-0.00391,0.0,1.397,0.022,0.0,2.04,0.031,2.04,7.34,0.0
1.36,0.1594,1.5617,10.2938,0.00481,-0.01246,-0.00578,0.0,1.418,0.022,0.0,2.055,0.031,2.055,7.4,0.0
1.37,0.0716,1.4239,9.5659,-0.00227,-0.0007,0.00055,0.0,1.439,0.023,0.0,2.07,0.032,2.07,7.45,0.0
1.38,-0.4637,1.5402,9.5642,0.00143,-0.00464,0.00405,0.0,1.459,0.023,0.0,2.085,0.032,2.085,7.51,0.0
1.39,0.1301,2.0989,9.7544,-0.00555,-0.00045,-0.00965,0.0,1.48,0.023,0.0,2.1,0.032,2.1,7.56,0.0
1.4,0.0465,1.4521,8.7463,0.00027,0.00872,0.00736,0.0,1.502,0.024,0.0,2.115,0.032,2.115,7.61,0.0
1.41,-0.0277,1.4609,9.3771,0.00554,0.00121,0.0058,0.0,1.523,0.024,0.0,2.13,0.032,2.13,7.67,0.0
1.42,0.1024,1.2387,10.1332,0.00445,0.00368,-0.00034,0.0,1.544,0.024,0.0,2.145,0.033,2.145,7.72,0.0
1.43,-0.1115,1.7421,9.5386,0.00034,-0.00328,0.0001,0.0,1.566,0.025,0.0,2.16,0.033,2.16,7.78,0.0
1.44,0.4059,1.4215,9.532,-0.00021,0.00195,0.00139,0.0,1.588,0.025,0.0,2.175,0.033,2.175,7.83,0.0
1.45,-0.0744,1.313,9.1243,-0.00637,-0.0046,-0.00425,0.0,1.61,0.025,0.0,2.19,0.033,2.19,7.88,0.0
1.46,-0.0379,1.6442,9.7329,-0.00711,0.00245,-0.00868,0.0,1.632,0.026,0.0,2.205,0.033,2.205,7.94,0.0
1.47,0.1406,1.4292,10.1375,0.00467,0.00081,0.0068,0.0,1.654,0.026,0.0,2.22,0.034,2.22,7.99,0.0
1.48,-0.2423,1.6815,9.7249,-0.00228,-0.00311,0.00182,0.0,1.676,0.026,0.0,2.235,0.034,2.235,8.05,0.0
1.49,-0.4045,1.4122,10.0509,0.00232,0.00272,-0.00622,0.0,1.699,0.027,0.0,2.25,0.034,2.25,8.1,0.0
1.5,0.0186,1.4048,9.7901,-0.00294,-0.00539,-0.00585,0.0,1.721,0.027,0.0,2.265,0.034,2.265,8.15,0.0
1.51,0.0836,1.7283,10.3999,-0.00811,-0.00037,0.00705,0.0,1.744,0.027,0.0,2.28,0.034,2.28,8.21,0.0
1.52,-0.142,1.343,9.8357,-0.00717,0.00262,-0.00131,0.0,1.767,0.028,0.0,2.295,0.034,2.295,8.26,0.0
1.53,-0.0177,1.3919,9.8368,0.00178,0.00622,-0.01335,0.0,1.79,0.028,0.0,2.31,0.035,2.31,8.32,0.0
1.54,-0.2515,1.7769,9.9237,0.00868,0.00305,-0.00334,0.0,1.813,0.028,0.0,2.325,0.035,2.325,8.37,0.0
1.55,-0.0448,1.6966,9.7121,-0.00619,-0.00227,0.0063,0.0,1.837,0.029,0.0,2.34,0.035,2.34,8.42,0.0
1.56,-0.0037,1.3595,9.8079,0.00803,-0.00668,-0.00293,0.0,1.86,0.029,0.0,2.355,0.035,2.355,8.48,0.0
1.57,-0.4639,1.2733,9.7325,0.00049,0.00092,0.00859,0.0,1.884,0.029,0.0,2.37,0.035,2.37,8.53,0.0
1.58,0.0173,1.405,10.0008,0.00326,0.00509,-0.00587,0.0,1.908,0.03,0.0,2.385,0.036,2.385,8.59,0.0
1.59,-0.4529,1.4362,10.6202,0.0044,0.00202,-0.00159,0.0,1.932,0.03,0.0,2.4,0.036,2.4,8.64,0.0
1.6,-0.0918,1.8314,9.5449,0.00255,-0.0067,0.00087,0.0,1.956,0.031,0.0,2.415,0.036,2.415,8.69,0.0
1.61,-0.0421,1.4573,9.956,-0.00708,-0.00482,0.00214,0.0,1.98,0.031,0.0,2.43,0.036,2.43,8.75,0.0
1.62,-0.3326,1.303,9.9497,-0.00946,-0.00385,0.00169,0.0,2.005,0.031,0.0,2.445,0.036,2.445,8.8,0.0
1.63,-0.2141,1.4692,9.8451,-0.00532,-0.00474,0.00819,0.0,2.029,0.032,0.0,2.46,0.036,2.46,8.86,0.0
1.64,-0.1722,1.4404,9.0799,0.00491,-0.00042,0.00042,0.0,2.054,0.032,0.0,2.475,0.037,2.475,8.91,0.0
1.65,-0.0385,1.2963,9.9158,-0.00095,-0.00238,-0.00253,0.0,2.079,0.032,0.0,2.49,0.037,2.49,8.96,0.0
1.66,-0.2043,1.6601,10.3194,-0.00182,0.00889,0.01001,0.0,2.104,0.033,0.0,2.505,0.037,2.505,9.02,0.0
1.67,0.1186,1.4423,9.6089,-0.01028,-0.0054,-0.00068,0.0,2.129,0.033,0.0,2.52,0.037,2.52,9.07,0.0
1.68,-0.0395,1.3946,9.3747,0.00448,-0.00904,0.0016,0.0,2.155,0.033,0.0,2.535,0.037,2.535,9.13,0.0
1.69,-0.0548,1.6151,10.1193,-0.0003,-0.00291,-0.00686,0.0,2.18,0.034,0.0,2.55,0.037,2.55,9.18,0.0
1.7,0.3746,1.4981,9.939,-0.00267,0.00657,0.00436,0.0,2.206,0.034,0.0,2.565,0.038,2.565,9.23,0.0
1.71,0.59,1.5251,9.3044,0.0047,0.00914,0.00438,0.0,2.232,0.035,0.0,2.58,0.038,2.58,9.29,0.0
1.72,0.5171,1.3897,9.7685,-0.00094,0.00035,-4e-05,0.0,2.258,0.035,0.0,2.595,0.038,2.595,9.34,0.0
1.73,-0.3949,1.2375,10.0978,-0.00641,-0.00987,-0.00222,0.0,2.284,0.035,0.0,2.61,0.038,2.61,9.4,0.0
1.74,-0.4301,1.0267,10.2135,-0.00078,0.00033,-0.00137,0.0,2.31,0.036,0.0,2.625,0.038,2.625,9.45,0.0
1.75,-0.0343,1.701,9.7355,0.00022,0.00339,-0.00523,0.0,2.336,0.036,0.0,2.64,0.038,2.64,9.5,0.0
1.76,0.3819,1.6935,8.9217,-0.00038,-0.00292,-0.00447,0.0,2.363,0.036,0.0,2.655,0.039,2.655,9.56,0.0
1.77,0.1047,1.4746,9.7246,0.00462,-0.00203,-5e-05,0.0,2.39,0.037,0.0,2.67,0.039,2.67,9.61,0.0
1.78,0.2409,1.7521,9.283,0.00157,0.00229,0.00038,0.0,2.416,0.037,0.0,2.685,0.039,2.685,9.67,0.0
1.79,0.0642,1.7565,10.129,0.00629,0.00759,0.00474,0.0,2.443,0.038,0.0,2.7,0.039,2.7,9.72,0.0
1.8,0.0535,1.5583,9.6663,-0.00337,-0.00837,-0.00517,0.0,2.471,0.038,0.0,2.715,0.039,2.715,9.77,0.0
1.81,0.0864,1.2243,10.1078,-0.00053,0.00994,0.00853,0.0,2.498,0.038,0.0,2.73,0.039,2.73,9.83,0.0
1.82,0.3251,1.7207,10.1771,-0.0067,0.00907,-0.00275,0.0,2.525,0.039,0.0,2.745,0.039,2.745,9.88,0.0
1.83,-0.1163,1.5021,10.386,-0.00164,-0.00347,-0.00495,0.0,2.553,0.039,0.0,2.76,0.04,2.76,9.94,0.0
1.84,0.3003,1.5576,9.3087,-0.00233,0.00197,0.00496,0.0,2.581,0.04,0.0,2.775,0.04,2.775,9.99,0.0
1.85,0.2784,1.518,10.1334,-0.00076,0.0003,0.00413,0.0,2.609,0.04,0.0,2.79,0.04,2.79,10.04,0.0
1.86,0.3146,1.4384,9.849,-0.00459,0.00695,-0.00086,0.0,2.637,0.04,0.0,2.805,0.04,2.805,10.1,0.0
1.87,-0.535,1.849,9.895,0.0065,-0.00061,-0.00271,0.0,2.665,0.041,0.0,2.82,0.04,2.82,10.15,0.0
1.88,0.2898,1.462,9.6956,-0.01075,0.00274,-0.0018,0.0,2.693,0.041,0.0,2.835,0.04,2.835,10.21,0.0
1.89,0.1691,1.4347,11.179,0.00459,-0.0042,0.00116,0.0,2.722,0.042,0.0,2.85,0.041,2.85,10.26,0.0
1.9,0.4318,1.4644,10.3161,0.00351,-0.00362,-0.00954,0.0,2.75,0.042,0.0,2.865,0.041,2.865,10.31,0.0
1.91,-0.1417,1.6605,9.8679,-0.00142,0.00096,-0.00271,0.0,2.779,0.042,0.0,2.88,0.041,2.88,10.37,0.0
1.92,0.0517,2.0222,9.7997,0.00274,0.00999,0.00652,0.0,2.808,0.043,0.0,2.895,0.041,2.895,10.42,0.0
1.93,-0.1164,1.3503,9.1983,0.00765,-0.00364,0.01506,0.0,2.837,0.043,0.0,2.91,0.041,2.91,10.48,0.0
1.94,-0.3365,1.1491,9.5349,-0.00479,0.00867,-0.00239,0.0,2.866,0.044,0.0,2.925,0.041,2.925,10.53,0.0
1.95,-0.3427,1.6102,10.1101,-0.00466,-0.00355,0.0006,0.0,2.896,0.044,0.0,2.94,0.041,2.94,10.58,0.0
1.96,-0.0118,1.4924,9.8946,0.00366,-0.00121,-0.00455,0.0,2.925,0.045,0.0,2.955,0.042,2.955,10.64,0.0
1.97,0.1847,1.6252,10.0784,0.00423,-0.00399,0.00088,0.0,2.955,0.045,0.0,2.97,0.042,2.97,10.69,0.0
1.98,0.0627,1.7384,9.4868,0.00473,-0.00834,-0.00144,0.0,2.985,0.045,0.0,2.985,0.042,2.985,10.75,0.0
1.99,-0.062,1.7932,10.2766,-0.00787,0.0065,-0.00055,0.0,3.015,0.046,0.0,3.0,0.042,3.0,10.8,0.0
2.0,-0.1574,1.5438,9.7079,0.00207,-0.00113,-0.00951,0.0,3.045,0.046,0.0,3.015,0.042,3.015,10.85,0.0
2.01,-0.7188,1.9419,9.9913,-0.00218,-0.00112,-0.00059,0.0,3.075,0.047,0.0,3.03,0.042,3.03,10.91,0.0
2.02,0.4115,1.6791,9.8737,-0.00534,-0.00534,0.00681,0.0,3.106,0.047,0.0,3.045,0.042,3.045,10.96,0.0
2.03,-0.1107,1.8043,10.323,-0.00134,0.00484,-0.00313,0.0,3.136,0.047,0.0,3.06,0.042,3.06,11.02,0.0
2.04,0.1412,1.4677,9.7626,-0.00507,-0.00558,0.00953,0.0,3.167,0.048,0.0,3.075,0.043,3.075,11.07,0.0
2.05,0.379,1.8156,10.0297,0.00646,-0.00072,-0.00281,0.0,3.198,0.048,0.0,3.09,0.043,3.09,11.12,0.0
2.06,-0.2758,1.7505,9.7474,0.00043,-0.01186,-0.0072,0.0,3.229,0.049,0.0,3.105,0.043,3.105,11.18,0.0
2.07,-0.3335,1.301,9.5046,0.00055,0.0014,0.00119,0.0,3.26,0.049,0.0,3.12,0.043,3.12,11.23,0.0
2.08,0.4009,1.2909,9.1394,0.00755,0.0056,0.00051,0.0,3.292,0.05,0.0,3.135,0.043,3.135,11.29,0.0
2.09,0.6325,1.2064,10.1349,-0.00222,0.01058,0.00268,0.0,3.323,0.05,0.0,3.15,0.043,3.15,11.34,0.0
2.1,0.2909,1.5452,9.5678,-0.00939,0.00366,-0.00603,0.0,3.355,0.05,0.0,3.165,0.043,3.165,11.39,0.0
2.11,0.0787,1.351,9.6103,-0.00521,0.00181,0.00463,0.0,3.387,0.051,0.0,3.18,0.043,3.18,11.45,0.0
2.12,0.33,1.3501,9.9865,-0.00085,-0.00762,-0.01191,0.0,3.419,0.051,0.0,3.195,0.044,3.195,11.5,0.0
2.13,0.0626,1.6917,9.4655,0.00233,-0.0049,0.00827,0.0,3.451,0.052,0.0,3.21,0.044,3.21,11.56,0.0
2.14,0.2549,1.7458,9.4386,0.01123,0.00783,0.00146,0.0,3.483,0.052,0.0,3.225,0.044,3.225,11.61,0.0
2.15,-0.0001,1.5311,9.019,-0.00049,-0.00058,-0.00568,0.0,3.515,0.053,0.0,3.24,0.044,3.24,11.66,0.0
2.16,0.0643,1.241,9.411,0.00654,0.00317,-0.00475,0.0,3.548,0.053,0.0,3.255,0.044,3.255,11.72,0.0
2.17,-0.0933,1.5213,9.784,-0.00341,0.00339,-0.00654,0.0,3.581,0.054,0.0,3.27,0.044,3.27,11.77,0.0
2.18,0.1176,1.5109,10.6162,-0.00145,0.0131,0.00249,0.0,3.613,0.054,0.0,3.285,0.044,3.285,11.83,0.0
2.19,-0.4184,1.452,10.1188,0.00641,0.00127,0.00544,0.0,3.646,0.054,0.0,3.3,0.044,3.3,11.88,0.0
2.2,-0.4295,1.3272,9.433,-0.00218,0.00206,0.00339,0.0,3.68,0.055,0.0,3.315,0.045,3.315,11.93,0.0
2.21,-0.189,1.917,9.8535,-0.00844,-0.00106,-0.00591,0.0,3.713,0.055,0.0,3.33,0.045,3.33,11.99,0.0
2.22,0.2779,1.7848,10.2141,-0.00193,0.0024,-0.00295,0.0,3.746,0.056,0.0,3.345,0.045,3.345,12.04,0.0
2.23,-0.201,1.1322,10.5132,0.00682,-0.00694,-0.00467,0.0,3.78,0.056,0.0,3.36,0.045,3.36,12.1,0.0
2.24,0.3443,1.5596,9.0876,0.00542,-0.00899,-0.00471,0.0,3.814,0.057,0.0,3.375,0.045,3.375,12.15,0.0
2.25,0.0215,1.562,9.1328,0.00357,0.00698,0.00349,0.0,3.848,0.057,0.0,3.39,0.045,3.39,12.2,0.0
2.26,-0.0739,1.7662,9.7975,0.00637,-0.00561,0.00054,0.0,3.882,0.058,0.0,3.405,0.045,3.405,12.26,0.0
2.27,0.5546,1.6519,9.9009,-0.00786,0.00342,0.00527,0.0,3.916,0.058,0.0,3.42,0.045,3.42,12.31,0.0
2.28,0.2334,1.5008,9.5358,-0.00319,0.00199,0.0016,0.0,3.95,0.058,0.0,3.435,0.045,3.435,12.37,0.0
2.29,-0.0272,1.7185,10.348,0.00295,-0.00079,0.00173,0.0,3.985,0.059,0.0,3.45,0.046,3.45,12.42,0.0
2.3,0.0451,1.3864,9.8802,-0.00369,-0.00803,0.00067,0.0,4.019,0.059,0.0,3.465,0.046,3.465,12.47,0.0
2.31,-0.0201,1.7954,10.0924,0.00317,-0.00389,-0.00084,0.0,4.054,0.06,0.0,3.48,0.046,3.48,12.53,0.0
2.32,0.4016,1.6201,9.5508,-0.00212,-0.00108,-0.00118,0.0,4.089,0.06,0.0,3.495,0.046,3.495,12.58,0.0
2.33,0.3407,1.4237,9.6976,0.00111,-0.01087,-0.00304,0.0,4.124,0.061,0.0,3.51,0.046,3.51,12.64,0.0
2.34,0.2495,1.4183,9.6268,0.0067,-0.0049,-0.00226,0.0,4.159,0.061,0.0,3.525,0.046,3.525,12.69,0.0
2.35,0.1852,1.5648,9.2822,-0.00382,0.0089,0.00142,0.0,4.195,0.062,0.0,3.54,0.046,3.54,12.74,0.0
2.36,-0.3028,1.3799,10.0427,-0.00807,-0.00238,0.0069,0.0,4.23,0.062,0.0,3.555,0.046,3.555,12.8,0.0
2.37,0.2721,1.2035,9.245,0.00169,0.00624,0.00723,0.0,4.266,0.063,0.0,3.57,0.046,3.57,12.85,0.0
2.38,0.0209,1.1921,10.1628,-0.00404,-0.00161,0.00095,0.0,4.302,0.063,0.0,3.585,0.046,3.585,12.91,0.0
2.39,0.024,1.8051,9.6706,-0.00691,-0.0029,-0.00616,0.0,4.338,0.064,0.0,3.6,0.047,3.6,12.96,0.0
2.4,0.0473,1.5322,10.2669,-0.00763,-0.00535,-0.00128,0.0,4.374,0.064,0.0,3.615,0.047,3.615,13.01,0.0
2.41,-0.3522,1.3315,9.5718,0.00031,0.00567,0.00287,0.0,4.41,0.064,0.0,3.63,0.047,3.63,13.07,0.0
2.42,-0.2424,1.3637,9.8959,-0.00276,-0.00282,0.00671,0.0,4.447,0.065,0.0,3.645,0.047,3.645,13.12,0.0
2.43,0.3107,1.5874,9.1173,-0.00423,-0.00203,0.00069,0.0,4.483,0.065,0.0,3.66,0.047,3.66,13.18,0.0
2.44,-0.2564,1.6609,10.3434,-0.00581,0.00199,0.01013,0.0,4.52,0.066,0.0,3.675,0.047,3.675,13.23,0.0
2.45,0.1336,1.8821,9.4949,-0.00422,-0.00439,-0.00267,0.0,4.557,0.066,0.0,3.69,0.047,3.69,13.28,0.0
2.46,0.1906,1.2511,10.4064,0.00114,0.00589,0.0022,0.0,4.594,0.067,0.0,3.705,0.047,3.705,13.34,0.0
2.47,0.2241,1.5618,10.7216,0.00354,0.00029,0.00535,0.0,4.631,0.067,0.0,3.72,0.047,3.72,13.39,0.0
2.48,-0.478,1.5675,9.1927,-0.00743,0.00072,-0.00961,0.0,4.669,0.068,0.0,3.735,0.047,3.735,13.45,0.0
2.49,-0.0109,1.2316,9.2654,-0.00726,-0.004,-0.01175,0.0,4.706,0.068,0.0,3.75,0.047,3.75,13.5,0.0
2.5,-0.2861,1.4118,10.1629,0.00572,-0.00959,0.00426,0.0,4.744,0.069,0.0,3.765,0.047,3.765,13.55,0.0
2.51,-0.2575,1.553,9.1987,-0.00154,0.00178,0.00046,0.0,4.782,0.069,0.0,3.78,0.048,3.78,13.61,0.0
2.52,-0.0581,1.5271,9.9939,0.00816,0.01171,-0.00692,0.0,4.82,0.07,0.0,3.795,0.048,3.795,13.66,0.0
2.53,0.2684,1.821,9.5006,-0.00689,0.00601,-0.00257,0.0,4.858,0.07,0.0,3.81,0.048,3.81,13.72,0.0
2.54,0.1154,1.2509,9.8384,0.00398,0.003,0.00267,0.0,4.896,0.071,0.0,3.825,0.048,3.825,13.77,0.0
2.55,-0.0914,1.7199,10.1372,0.00257,0.00564,-0.00535,0.0,4.934,0.071,0.0,3.84,0.048,3.84,13.82,0.0
2.56,0.1119,1.5492,10.4236,-0.00561,-0.00269,-0.00403,0.0,4.973,0.072,0.0,3.855,0.048,3.855,13.88,0.0
2.57,0.0386,1.4467,10.0538,0.00205,0.00074,-5e-05,0.0,5.012,0.072,0.0,3.87,0.048,3.87,13.93,0.0
2.58,0.4997,1.2888,9.3614,0.00263,-0.00201,-0.00085,0.0,5.051,0.073,0.0,3.885,0.048,3.885,13.99,0.0
2.59,0.3004,1.393,9.8675,-4e-05,0.00197,0.00368,0.0,5.09,0.073,0.0,3.9,0.048,3.9,14.04,0.0
2.6,0.0815,1.4316,10.4222,-0.00024,0.0031,0.00269,0.0,5.129,0.073,0.0,3.915,0.048,3.915,14.09,0.0
2.61,0.3521,1.4841,10.3583,0.00085,-0.00234,-0.00143,0.0,5.168,0.074,0.0,3.93,0.048,3.93,14.15,0.0
2.62,0.5441,1.477,9.66,0.00897,0.00577,0.00195,0.0,5.207,0.074,0.0,3.945,0.048,3.945,14.2,0.0
2.63,-0.1289,1.3678,10.1808,-0.00594,-0.00057,0.00161,0.0,5.247,0.075,0.0,3.96,0.048,3.96,14.26,0.0
2.64,-0.0193,1.3667,9.8475,0.0021,0.00188,-0.00212,0.0,5.287,0.075,0.0,3.975,0.048,3.975,14.31,0.0
2.65,-0.2321,1.4478,10.1872,0.00815,-0.00172,0.00399,0.0,5.327,0.076,0.0,3.99,0.048,3.99,14.36,0.0
2.66,0.0333,1.6499,10.1121,0.00214,0.00218,0.00531,0.0,5.367,0.076,0.0,4.005,0.049,4.005,14.42,0.0
2.67,-0.5519,1.3481,10.0834,0.00125,0.01023,0.00057,0.0,5.407,0.077,0.0,4.02,0.049,4.02,14.47,0.0
2.68,0.1143,1.5667,9.3186,-0.01073,-0.00042,-0.00644,0.0,5.447,0.077,0.0,4.035,0.049,4.035,14.53,0.0
2.69,0.5668,1.089,9.5169,0.00023,0.00442,0.00351,0.0,5.488,0.078,0.0,4.05,0.049,4.05,14.58,0.0
2.7,0.0508,1.6823,10.0375,0.00079,0.00974,0.00456,0.0,5.528,0.078,0.0,4.065,0.049,4.065,14.63,0.0
2.71,0.0041,1.6177,9.4009,-0.00016,-0.00335,0.00284,0.0,5.569,0.079,0.0,4.08,0.049,4.08,14.69,0.0
2.72,-0.208,1.5713,9.6161,-0.00313,0.00069,0.00965,0.0,5.61,0.079,0.0,4.095,0.049,4.095,14.74,0.0
2.73,-0.65,1.1699,9.7846,-0.00477,0.00651,0.00195,0.0,5.651,0.08,0.0,4.11,0.049,4.11,14.8,0.0
2.74,0.0538,1.2225,9.6697,0.00662,-0.00198,-0.00725,0.0,5.693,0.08,0.0,4.125,0.049,4.125,14.85,0.0
2.75,-0.1865,1.3527,9.4753,0.0011,-0.00267,-0.00451,0.0,5.734,0.081,0.0,4.14,0.049,4.14,14.9,0.0
2.76,-0.0606,1.7278,9.5199,0.00174,-0.00809,-0.00711,0.0,5.775,0.081,0.0,4.155,0.049,4.155,14.96,0.0
2.77,-0.0117,2.1819,9.8897,0.00104,-0.00175,-7e-05,0.0,5.817,0.082,0.0,4.17,0.049,4.17,15.01,0.0
2.78,0.2719,1.9173,9.9894,-0.00043,0.00101,0.00239,0.0,5.859,0.082,0.0,4.185,0.049,4.185,15.07,0.0
2.79,0.1455,1.8629,9.4567,-0.00682,0.00278,-0.00582,0.0,5.901,0.083,0.0,4.2,0.049,4.2,15.12,0.0
2.8,-0.2399,1.4902,9.142,-0.00091,0.00171,-0.00162,0.0,5.943,0.083,0.0,4.215,0.049,4.215,15.17,0.0
2.81,0.8208,1.5357,9.7976,0.00837,-0.00057,0.00465,0.0,5.985,0.084,0.0,4.23,0.049,4.23,15.23,0.0
2.82,-0.2601,1.0521,10.4164,-0.00451,-0.00193,-0.00123,0.0,6.028,0.084,0.0,4.245,0.049,4.245,15.28,0.0
2.83,-0.0499,1.4469,9.5683,0.00192,0.00273,-0.00433,0.0,6.071,0.085,0.0,4.26,0.049,4.26,15.34,0.0
2.84,0.2285,1.7615,9.861,-0.00165,-0.00385,-0.00077,0.0,6.113,0.085,0.0,4.275,0.049,4.275,15.39,0.0
2.85,-0.1664,1.2469,10.3832,0.00318,-0.00021,-0.00833,0.0,6.156,0.086,0.0,4.29,0.049,4.29,15.44,0.0
2.86,0.0647,1.3869,9.8649,-0.00523,-0.00307,0.00605,0.0,6.199,0.086,0.0,4.305,0.05,4.305,15.5,0.0
2.87,0.2066,1.6878,9.8071,-0.00488,-0.00201,-0.00372,0.0,6.242,0.087,0.0,4.32,0.05,4.32,15.55,0.0
2.88,-0.1495,1.3806,9.1209,0.00147,-0.00135,0.0023,0.0,6.286,0.087,0.0,4.335,0.05,4.335,15.61,0.0
2.89,0.1962,1.3691,9.812,0.00163,-0.00673,-0.0042,0.0,6.329,0.088,0.0,4.35,0.05,4.35,15.66,0.0
2.9,-0.303,1.5554,10.0752,-0.00311,-0.00229,-0.00057,0.0,6.373,0.088,0.0,4.365,0.05,4.365,15.71,0.0
2.91,0.1278,1.3221,9.9993,-0.00373,0.00786,0.00195,0.0,6.417,0.089,0.0,4.38,0.05,4.38,15.77,0.0
2.92,-0.0927,1.2853,9.6628,-0.00616,0.00419,-0.00462,0.0,6.461,0.089,0.0,4.395,0.05,4.395,15.82,0.0
2.93,-0.0611,1.5807,9.923,-0.00061,0.00621,0.00257,0.0,6.505,0.09,0.0,4.41,0.05,4.41,15.88,0.0
2.94,0.2069,1.5563,10.1023,-0.00331,-0.00072,0.00371,0.0,6.549,0.09,0.0,4.425,0.05,4.425,15.93,0.0
2.95,0.0043,1.7874,9.8961,-0.00253,-0.00323,0.00281,0.0,6.593,0.091,0.0,4.44,0.05,4.44,15.98,0.0
2.96,-0.2299,1.6083,9.2819,0.00063,0.00133,-0.00209,0.0,6.638,0.091,0.0,4.455,0.05,4.455,16.04,0.0
2.97,0.0803,1.3188,9.412,-0.0105,0.00985,-0.00643,0.0,6.683,0.092,0.0,4.47,0.05,4.47,16.09,0.0
2.98,-0.3739,1.541,9.4945,-0.001,-3e-05,0.00111,0.0,6.728,0.092,0.0,4.485,0.05,4.485,16.15,0.0
2.99,0.3515,1.6193,9.4505,0.00842,-0.00068,-0.00027,0.0,6.773,0.093,0.0,4.5,0.05,4.5,16.2,0.0
3.0,-0.1364,1.4875,9.632,-0.00589,0.00534,-0.00419,0.0,6.818,0.093,0.0,4.515,0.05,4.515,16.25,0.0
3.01,-0.1545,1.3848,9.5582,-0.00566,-0.00047,0.00722,0.0,6.863,0.094,0.0,4.53,0.05,4.53,16.31,0.0
3.02,-0.5383,1.1123,9.5949,0.00658,-0.00493,-0.00153,0.0,6.908,0.094,0.0,4.545,0.05,4.545,16.36,0.0
3.03,-0.1468,1.384,10.4178,0.00026,0.00021,0.00085,0.0,6.954,0.095,0.0,4.56,0.05,4.56,16.42,0.0
3.04,-0.1831,1.3359,9.9541,0.00068,-0.0059,-0.00232,0.0,7.0,0.095,0.0,4.575,0.05,4.575,16.47,0.0
3.05,-0.1182,1.6674,9.9688,-0.00602,0.00113,0.00037,0.0,7.046,0.096,0.0,4.59,0.05,4.59,16.52,0.0
3.06,-0.0481,1.4715,9.6633,0.0047,0.00236,-0.00249,0.0,7.092,0.096,0.0,4.605,0.05,4.605,16.58,0.0
3.07,0.3808,1.5372,9.4509,-0.00484,0.00873,0.00042,0.0,7.138,0.097,0.0,4.62,0.05,4.62,16.63,0.0
3.08,-0.2673,1.6391,9.325,0.0021,0.00289,-0.00157,0.0,7.184,0.097,0.0,4.635,0.05,4.635,16.69,0.0
3.09,-0.423,1.4794,10.311,-0.00274,0.00584,-0.00867,0.0,7.231,0.098,0.0,4.65,0.05,4.65,16.74,0.0
3.1,0.3377,1.4197,9.9417,0.00243,0.0019,0.00836,0.0,7.277,0.098,0.0,4.665,0.05,4.665,16.79,0.0
3.11,0.068,1.7309,9.7005,-0.00147,0.00164,0.00738,0.0,7.324,0.099,0.0,4.68,0.05,4.68,16.85,0.0
3.12,-0.3489,1.472,9.243,-0.00011,0.00218,0.00192,0.0,7.371,0.099,0.0,4.695,0.05,4.695,16.9,0.0
3.13,-0.4088,1.5645,9.5569,0.00292,0.0173,-0.00048,0.0,7.418,0.1,0.0,4.71,0.05,4.71,16.96,0.0
3.14,-0.0447,1.5054,9.8233,-0.00268,0.00384,0.00335,0.0,7.466,0.1,0.0,4.725,0.05,4.725,17.01,0.0
3.15,-0.1594,1.5608,9.6194,-0.00166,0.00116,-0.00018,0.0,7.513,0.101,0.0,4.74,0.05,4.74,17.06,0.0
3.16,-0.5975,1.4848,9.7476,-0.00425,-0.00227,-0.00632,0.0,7.56,0.101,0.0,4.755,0.05,4.755,17.12,0.0
3.17,-0.2573,1.4771,9.6158,0.00083,-0.00569,0.00179,0.0,7.608,0.102,0.0,4.77,0.05,4.77,17.17,0.0
3.18,0.2469,1.3502,9.8128,0.00186,-0.01077,-0.00437,0.0,7.656,0.102,0.0,4.785,0.05,4.785,17.23,0.0
3.19,0.4113,1.8423,10.0825,-0.00156,-0.00017,0.00336,0.0,7.704,0.103,0.0,4.8,0.05,4.8,17.28,0.0
3.2,0.3445,1.4685,10.2066,-0.00073,-0.00015,-0.004,0.0,7.752,0.103,0.0,4.815,0.05,4.815,17.33,0.0
3.21,-0.285,1.5636,9.6905,0.00124,0.0062,0.01179,0.0,7.8,0.104,0.0,4.83,0.05,4.83,17.39,0.0
3.22,0.029,1.576,9.903,0.0007,0.00262,0.00199,0.0,7.849,0.104,0.0,4.845,0.05,4.845,17.44,0.0
3.23,0.1154,1.6735,10.2857,-0.00769,0.00959,-0.00117,0.0,7.898,0.105,0.0,4.86,0.05,4.86,17.5,0.0
3.24,-0.0572,1.6115,9.9622,0.00016,-0.00528,5e-05,0.0,7.946,0.105,0.0,4.875,0.05,4.875,17.55,0.0
3.25,-0.0821,1.4275,9.7825,-0.00016,-0.00031,-0.00632,0.0,7.995,0.106,0.0,4.89,0.05,4.89,17.6,0.0
3.26,-0.1224,1.5514,10.0122,0.00411,-3e-05,0.00296,0.0,8.044,0.106,0.0,4.905,0.05,4.905,17.66,0.0
3.27,-0.0068,1.5755,9.5847,-0.00501,-0.00685,-0.00641,0.0,8.093,0.107,0.0,4.92,0.05,4.92,17.71,0.0
3.28,0.3581,1.478,9.6797,-0.0041,-0.00357,0.00628,0.0,8.143,0.107,0.0,4.935,0.05,4.935,17.77,0.0
3.29,0.0228,1.5791,9.5901,-0.01025,0.00306,0.00652,0.0,8.192,0.108,0.0,4.95,0.05,4.95,17.82,0.0
3.3,-0.1786,1.3447,9.5624,0.00061,0.00571,-0.00212,0.0,8.242,0.108,0.0,4.965,0.05,4.965,17.87,0.0
3.31,0.0782,1.6451,9.7592,0.0007,0.00849,0.00072,0.0,8.292,0.109,0.0,4.98,0.05,4.98,17.93,0.0
3.32,-0.1113,1.8136,9.4284,0.00509,0.00058,0.00087,0.0,8.342,0.109,0.0,4.995,0.05,4.995,17.98,0.0
3.33,0.0698,1.3355,9.6626,-0.00192,0.00279,-0.00038,0.0,8.392,0.11,0.0,5.01,0.05,5.01,18.04,0.0
3.34,-0.2902,1.7085,9.6122,-0.00057,-0.00206,0.00047,0.0,8.442,0.11,0.0,5.025,0.05,5.025,18.09,0.0
3.35,0.4427,1.5553,9.8174,-0.00666,0.00062,0.00322,0.0,8.492,0.111,0.0,5.04,0.05,5.04,18.14,0.0
3.36,0.2112,1.4357,9.2583,-0.00034,0.00191,-0.00633,0.0,8.543,0.111,0.0,5.055,0.05,5.055,18.2,0.0
3.37,-0.0614,1.3422,9.7835,0.00455,-0.00033,0.01167,0.0,8.594,0.112,0.0,5.07,0.05,5.07,18.25,0.0
3.38,0.3013,1.585,9.7708,-0.00619,-0.00054,0.00314,0.0,8.644,0.112,0.0,5.085,0.05,5.085,18.31,0.0
3.39,-0.0011,1.732,9.9382,0.00264,0.00212,0.00118,0.0,8.696,0.113,0.0,5.1,0.05,5.1,18.36,0.0
3.4,0.0395,1.0612,10.6961,-0.00548,-0.01035,0.0011,0.0,8.747,0.113,0.0,5.115,0.05,5.115,18.41,0.0
3.41,-0.1374,1.7228,9.9744,0.0031,0.00401,-0.00097,0.0,8.798,0.114,0.0,5.13,0.05,5.13,18.47,0.0
3.42,-0.0689,1.7381,8.9597,0.00084,0.00271,-0.00691,0.0,8.849,0.114,0.0,5.145,0.05,5.145,18.52,0.0
3.43,-0.0665,1.2701,9.5222,0.00332,0.0051,-0.00924,0.0,8.901,0.115,0.0,5.16,0.049,5.16,18.58,0.0
3.44,0.0621,1.4121,9.6475,-0.00577,-0.00611,-0.00025,0.0,8.953,0.115,0.0,5.175,0.049,5.175,18.63,0.0
3.45,-0.101,1.7427,9.7516,-0.00024,-0.00247,0.00828,0.0,9.005,0.116,0.0,5.19,0.049,5.19,18.68,0.0
3.46,-0.1997,1.6636,9.483,-0.00078,0.00069,0.00416,0.0,9.057,0.116,0.0,5.205,0.049,5.205,18.74,0.0
3.47,0.2268,1.5099,9.708,0.00398,0.00621,0.00444,0.0,9.109,0.117,0.0,5.22,0.049,5.22,18.79,0.0
3.48,-0.153,1.7419,9.9811,0.00023,-0.00995,0.00537,0.0,9.161,0.117,0.0,5.235,0.049,5.235,18.85,0.0
3.49,-0.1582,1.8177,9.6801,0.00345,0.00283,0.00143,0.0,9.214,0.118,0.0,5.25,0.049,5.25,18.9,0.0
3.5,0.1907,1.578,9.6123,-0.00614,-0.00376,-0.00033,0.0,9.266,0.118,0.0,5.265,0.049,5.265,18.95,0.0
3.51,-0.1004,1.2559,10.2558,0.00047,-0.00269,0.00146,0.0,9.319,0.119,0.0,5.28,0.049,5.28,19.01,0.0
3.52,-0.3028,1.8222,9.6274,-0.00257,-0.0023,0.00692,0.0,9.372,0.119,0.0,5.295,0.049,5.295,19.06,0.0
3.53,0.1416,1.5238,10.6811,0.00289,0.00088,0.00101,0.0,9.425,0.12,0.0,5.31,0.049,5.31,19.12,0.0
3.54,0.0195,1.2162,10.2886,-0.00532,-0.00777,-0.00252,0.0,9.478,0.12,0.0,5.325,0.049,5.325,19.17,0.0
3.55,-0.1182,1.5246,10.1995,0.00022,-0.01244,0.00457,0.0,9.532,0.121,0.0,5.34,0.049,5.34,19.22,0.0
3.56,0.1816,1.3525,10.1196,-0.01073,-0.00112,0.00409,0.0,9.585,0.121,0.0,5.355,0.049,5.355,19.28,0.0
3.57,0.2363,1.285,9.5116,0.00626,-0.00795,0.0038,0.0,9.639,0.122,0.0,5.37,0.049,5.37,19.33,0.0
3.58,-0.0203,1.2393,9.1274,0.00176,-0.00484,0.0038,0.0,9.693,0.122,0.0,5.385,0.049,5.385,19.39,0.0
3.59,0.1431,1.6049,9.9704,0.00154,-0.00522,0.00087,0.0,9.747,0.122,0.0,5.4,0.049,5.4,19.44,0.0
3.6,-0.0344,1.338,9.6782,-0.0002,-0.00099,-0.00508,0.0,9.801,0.123,0.0,5.415,0.049,5.415,19.49,0.0
3.61,-0.4448,1.8143,9.6477,-0.00597,0.00387,-0.00583,0.0,9.855,0.123,0.0,5.43,0.049,5.43,19.55,0.0
3.62,-0.0592,1.7983,9.8801,-0.003,-0.00526,-0.00199,0.0,9.91,0.124,0.0,5.445,0.049,5.445,19.6,0.0
3.63,-0.046,1.758,10.0485,0.00036,-0.00427,0.00054,0.0,9.964,0.124,0.0,5.46,0.049,5.46,19.66,0.0
3.64,0.0327,1.572,10.0492,-0.0069,-0.00477,-0.00229,0.0,10.019,0.125,0.0,5.475,0.048,5.475,19.71,0.0
3.65,-0.074,1.2671,9.8363,-0.00633,-0.00419,-0.00048,0.0,10.074,0.125,0.0,5.49,0.048,5.49,19.76,0.0
3.66,0.1255,1.5535,10.617,0.00378,-0.00088,0.00705,0.0,10.129,0.126,0.0,5.505,0.048,5.505,19.82,0.0
3.67,-0.2157,1.0864,9.8731,0.00844,-0.00642,0.0073,0.0,10.184,0.126,0.0,5.52,0.048,5.52,19.87,0.0
3.68,0.016,1.2336,10.0627,-0.0055,-0.00717,0.00337,0.0,10.24,0.127,0.0,5.535,0.048,5.535,19.93,0.0
3.69,-0.3277,1.398,10.0245,-0.00491,0.00128,-0.00167,0.0,10.295,0.127,0.0,5.55,0.048,5.55,19.98,0.0
3.7,-0.556,1.4342,9.9869,0.00498,-0.00069,0.00433,0.0,10.351,0.128,0.0,5.565,0.048,5.565,20.03,0.0
3.71,-0.043,1.5585,10.123,-0.00365,-0.00401,0.00803,0.0,10.407,0.128,0.0,5.58,0.048,5.58,20.09,0.0
3.72,-0.0153,1.7305,9.8225,-0.00289,-0.01,0.00436,0.0,10.463,0.129,0.0,5.595,0.048,5.595,20.14,0.0
3.73,-0.0777,1.2258,10.0428,-0.0049,-0.00483,0.00491,0.0,10.519,0.129,0.0,5.61,0.048,5.61,20.2,0.0
3.74,-0.0685,1.5393,9.8685,-0.00366,-0.01051,-0.00189,0.0,10.575,0.13,0.0,5.625,0.048,5.625,20.25,0.0
3.75,0.1296,1.4731,10.3169,0.00247,0.00563,-0.0064,0.0,10.631,0.13,0.0,5.64,0.048,5.64,20.3,0.0
3.76,0.1357,1.4638,10.3307,-0.00153,-0.00274,-0.00421,0.0,10.688,0.131,0.0,5.655,0.048,5.655,20.36,0.0
3.77,0.4483,1.4369,10.5032,-0.00208,0.00139,0.00105,0.0,10.745,0.131,0.0,5.67,0.048,5.67,20.41,0.0
3.78,-0.0822,1.1706,9.6502,-0.00273,0.0067,0.00506,0.0,10.801,0.132,0.0,5.685,0.047,5.685,20.47,0.0
3.79,-0.2669,1.617,9.7933,0.00069,0.00365,-0.00805,0.0,10.858,0.132,0.0,5.7,0.047,5.7,20.52,0.0
3.8,0.0096,1.5195,9.7621,0.00038,-0.00246,-0.00061,0.0,10.916,0.133,0.0,5.715,0.047,5.715,20.57,0.0
3.81,0.5635,1.8266,9.8688,0.00388,0.00423,-0.00398,0.0,10.973,0.133,0.0,5.73,0.047,5.73,20.63,0.0
3.82,-0.1923,1.6629,9.8611,0.00905,-0.00358,-0.00186,0.0,11.03,0.134,0.0,5.745,0.047,5.745,20.68,0.0
3.83,0.0906,1.6041,9.4667,-0.00269,-0.00028,-0.00389,0.0,11.088,0.134,0.0,5.76,0.047,5.76,20.74,0.0
3.84,0.3229,1.4674,10.3249,0.00246,0.00448,0.00016,0.0,11.146,0.134,0.0,5.775,0.047,5.775,20.79,0.0
3.85,0.1074,1.6347,9.9991,0.00192,-0.00297,-0.00746,0.0,11.204,0.135,0.0,5.79,0.047,5.79,20.84,0.0
3.86,-0.1437,1.2868,9.626,-0.00089,-0.00793,0.00962,0.0,11.262,0.135,0.0,5.805,0.047,5.805,20.9,0.0
3.87,-0.0494,1.6156,9.9629,0.00503,-0.00221,-0.00486,0.0,11.32,0.136,0.0,5.82,0.047,5.82,20.95,0.0
3.88,-0.0681,1.37,9.2602,0.00133,-0.00219,-0.0059,0.0,11.378,0.136,0.0,5.835,0.047,5.835,21.01,0.0
3.89,0.0218,1.6978,10.3827,-0.00614,-0.00189,-0.00839,0.0,11.437,0.137,0.0,5.85,0.047,5.85,21.06,0.0
3.9,-0.214,1.3688,9.7405,0.00206,-0.0024,-0.00115,0.0,11.495,0.137,0.0,5.865,0.046,5.865,21.11,0.0
3.91,-0.1165,1.4502,10.7682,-0.00433,0.00114,0.00734,0.0,11.554,0.138,0.0,5.88,0.046,5.88,21.17,0.0
3.92,-0.551,1.5754,10.2467,0.0063,0.00354,0.00424,0.0,11.613,0.138,0.0,5.895,0.046,5.895,21.22,0.0
3.93,0.092,1.5921,9.5648,0.00161,0.00134,-0.00214,0.0,11.672,0.139,0.0,5.91,0.046,5.91,21.28,0.0
3.94,0.0872,1.5033,10.0828,-0.00473,-0.0025,-0.00125,0.0,11.731,0.139,0.0,5.925,0.046,5.925,21.33,0.0
3.95,0.2367,1.3047,9.5739,-0.00303,0.00178,-0.00244,0.0,11.791,0.14,0.0,5.94,0.046,5.94,21.38,0.0
3.96,-0.7482,1.5275,9.8745,-0.00207,0.01038,0.0008,0.0,11.85,0.14,0.0,5.955,0.046,5.955,21.44,0.0
3.97,-0.0955,1.5781,9.9653,0.00272,-0.00422,-0.00294,0.0,11.91,0.14,0.0,5.97,0.046,5.97,21.49,0.0
3.98,-0.1613,1.2228,10.2418,-0.00207,0.00415,-0.00714,0.0,11.97,0.141,0.0,5.985,0.046,5.985,21.55,0.0
3.99,0.1501,1.2653,9.4031,0.00199,0.0013,0.00334,0.0,12.03,0.141,0.0,6.0,0.046,6.0,21.6,0.0
4.0,-0.0642,1.401,9.6148,0.00396,0.00697,-0.00485,0.0,12.09,0.142,0.0,6.015,0.045,6.015,21.65,0.0
4.01,0.5711,1.5233,9.2717,-0.003,0.00372,0.0048,0.0,12.15,0.142,0.0,6.03,0.045,6.03,21.71,0.0
4.02,0.1432,1.1379,10.5158,-0.00441,-0.00333,-0.00263,0.0,12.211,0.143,0.0,6.045,0.045,6.045,21.76,0.0
4.03,0.4499,1.6786,9.7829,-6e-05,-0.00087,-0.00021,0.0,12.271,0.143,0.0,6.06,0.045,6.06,21.82,0.0
4.04,-0.1967,1.3099,10.0081,-0.00011,0.00164,-0.00079,0.0,12.332,0.144,0.0,6.075,0.045,6.075,21.87,0.0
4.05,-0.048,1.7649,9.6135,0.00254,0.00166,0.00188,0.0,12.393,0.144,0.0,6.09,0.045,6.09,21.92,0.0
4.06,0.0585,1.3828,9.2258,0.00056,0.00142,-0.00226,0.0,12.454,0.145,0.0,6.105,0.045,6.105,21.98,0.0
4.07,-0.0209,1.5999,9.0402,-0.00121,-0.00326,-0.00311,0.0,12.515,0.145,0.0,6.12,0.045,6.12,22.03,0.0
4.08,0.2471,1.7658,10.3957,0.00507,0.00065,-0.0093,0.0,12.577,0.145,0.0,6.135,0.045,6.135,22.09,0.0
4.09,0.0004,1.4546,10.0077,0.0021,-0.00708,0.00168,0.0,12.638,0.146,0.0,6.15,0.044,6.15,22.14,0.0
4.1,-0.185,1.371,9.5554,0.00261,0.0015,0.00391,0.0,12.7,0.146,0.0,6.165,0.044,6.165,22.19,0.0
4.11,-0.296,1.2141,9.7251,0.01012,0.00323,-0.00262,0.0,12.762,0.147,0.0,6.18,0.044,6.18,22.25,0.0
4.12,0.1982,1.3237,9.6946,0.00412,0.00804,-0.00604,0.0,12.824,0.147,0.0,6.195,0.044,6.195,22.3,0.0
4.13,-0.303,1.4657,9.7265,0.00144,-0.00113,-0.00612,0.0,12.886,0.148,0.0,6.21,0.044,6.21,22.36,0.0
4.14,0.3915,1.5035,9.6885,-0.00337,0.00291,0.00734,0.0,12.948,0.148,0.0,6.225,0.044,6.225,22.41,0.0
4.15,0.0904,1.4192,9.7323,-0.00017,-0.00864,-0.00228,0.0,13.01,0.149,0.0,6.24,0.044,6.24,22.46,0.0
4.16,0.1675,1.9821,10.1174,0.0011,-0.00043,0.00761,0.0,13.073,0.149,0.0,6.255,0.044,6.255,22.52,0.0
4.17,-0.3477,1.3647,9.0243,0.00085,0.00061,0.0117,0.0,13.136,0.149,0.0,6.27,0.044,6.27,22.57,0.0
4.18,-0.1186,1.7075,9.8615,0.00551,0.00512,0.00182,0.0,13.198,0.15,0.0,6.285,0.043,6.285,22.63,0.0
4.19,-0.1463,1.5587,9.6167,0.00332,0.0012,-0.00448,0.0,13.261,0.15,0.0,6.3,0.043,6.3,22.68,0.0
4.2,-0.1932,1.3847,9.6124,-0.00133,0.00315,-0.00563,0.0,13.325,0.151,0.0,6.315,0.043,6.315,22.73,0.0
4.21,0.204,1.829,9.3473,-0.00085,0.01003,0.0067,0.0,13.388,0.151,0.0,6.33,0.043,6.33,22.79,0.0
4.22,0.32,1.4972,10.0501,-0.00521,0.00331,9e-05,0.0,13.451,0.152,0.0,6.345,0.043,6.345,22.84,0.0
4.23,0.0709,1.2388,9.4101,-0.00454,0.00374,-0.00097,0.0,13.515,0.152,0.0,6.36,0.043,6.36,22.9,0.0
4.24,-0.2375,1.4995,9.7588,-0.01013,-0.00798,-0.00359,0.0,13.579,0.152,0.0,6.375,0.043,6.375,22.95,0.0
4.25,0.1,1.6612,9.5708,8e-05,0.00051,-0.00091,0.0,13.643,0.153,0.0,6.39,0.043,6.39,23.0,0.0
4.26,-0.218,1.1956,10.1961,0.00246,-0.00089,-0.00082,0.0,13.707,0.153,0.0,6.405,0.042,6.405,23.06,0.0
4.27,-0.0087,1.4363,10.6081,0.00572,0.00328,-0.01023,0.0,13.771,0.154,0.0,6.42,0.042,6.42,23.11,0.0
4.28,-0.2871,1.1695,10.0614,0.00526,-0.0039,-0.00206,0.0,13.835,0.154,0.0,6.435,0.042,6.435,23.17,0.0
4.29,0.1802,1.6283,9.1354,-0.00109,-0.01305,-0.00443,0.0,13.9,0.155,0.0,6.45,0.042,6.45,23.22,0.0
4.3,0.048,1.8809,9.6207,0.00097,0.00703,0.00786,0.0,13.964,0.155,0.0,6.465,0.042,6.465,23.27,0.0
4.31,0.2897,1.3678,10.1967,-0.00068,0.00258,0.0046,0.0,14.029,0.155,0.0,6.48,0.042,6.48,23.33,0.0
4.32,-0.0294,1.9421,9.9776,-0.00775,0.00426,0.00473,0.0,14.094,0.156,0.0,6.495,0.042,6.495,23.38,0.0
4.33,-0.1657,1.5447,9.9413,0.00756,-0.00022,0.00504,0.0,14.159,0.156,0.0,6.51,0.041,6.51,23.44,0.0
4.34,0.4415,1.7132,10.4776,-0.0041,0.00332,0.00124,0.0,14.224,0.157,0.0,6.525,0.041,6.525,23.49,0.0
4.35,-0.0116,1.3441,9.9448,-0.00045,-0.00698,0.00073,0.0,14.29,0.157,0.0,6.54,0.041,6.54,23.54,0.0
4.36,0.214,1.638,9.5625,-0.00114,0.00338,-0.00028,0.0,14.355,0.157,0.0,6.555,0.041,6.555,23.6,0.0
4.37,-0.2043,1.3959,10.1943,-0.00984,-0.00568,0.00041,0.0,14.421,0.158,0.0,6.57,0.041,6.57,23.65,0.0
4.38,0.2138,1.5426,9.8833,0.00581,-0.00442,-0.00299,0.0,14.487,0.158,0.0,6.585,0.041,6.585,23.71,0.0
4.39,-0.3788,1.4109,9.8858,0.00814,0.00474,0.00199,0.0,14.553,0.159,0.0,6.6,0.041,6.6,23.76,0.0
4.4,-0.1207,1.4091,9.8235,0.00361,0.00177,-0.00134,0.0,14.619,0.159,0.0,6.615,0.04,6.615,23.81,0.0
4.41,-0.0991,1.4852,9.9771,-0.00324,0.00634,-0.00408,0.0,14.685,0.159,0.0,6.63,0.04,6.63,23.87,0.0
4.42,-0.0814,1.2114,10.1113,0.0057,-0.00324,0.0024,0.0,14.752,0.16,0.0,6.645,0.04,6.645,23.92,0.0
4.43,0.1622,1.6157,10.0639,-0.00138,-0.00444,-0.00136,0.0,14.818,0.16,0.0,6.66,0.04,6.66,23.98,0.0
4.44,0.5474,1.4741,9.8657,-0.00078,0.00093,0.007,0.0,14.885,0.161,0.0,6.675,0.04,6.675,24.03,0.0
4.45,-0.0949,1.7639,10.2956,0.00567,-0.00209,0.00881,0.0,14.952,0.161,0.0,6.69,0.04,6.69,24.08,0.0
4.46,0.0481,1.431,9.5963,0.00191,0.0069,0.00173,0.0,15.019,0.161,0.0,6.705,0.04,6.705,24.14,0.0
4.47,-0.0616,1.4485,10.2499,0.00134,0.00257,0.00522,0.0,15.086,0.162,0.0,6.72,0.039,6.72,24.19,0.0
4.48,-0.1141,2.0347,10.2893,-0.00641,-0.00272,-0.00747,0.0,15.154,0.162,0.0,6.735,0.039,6.735,24.25,0.0
4.49,-0.0635,1.167,9.8029,-0.00149,-0.00078,-0.00088,0.0,15.221,0.163,0.0,6.75,0.039,6.75,24.3,0.0
4.5,-0.1757,1.3654,9.7595,0.00191,-0.00727,-0.00447,0.0,15.289,0.163,0.0,6.765,0.039,6.765,24.35,0.0
4.51,0.3686,1.5838,10.2567,-0.00171,0.00228,-0.00404,0.0,15.357,0.163,0.0,6.78,0.039,6.78,24.41,0.0
4.52,-0.0585,1.4934,9.939,0.0062,-0.00065,-0.00068,0.0,15.425,0.164,0.0,6.795,0.039,6.795,24.46,0.0
4.53,0.1784,1.8769,10.0311,0.00102,-0.00195,0.00282,0.0,15.493,0.164,0.0,6.81,0.038,6.81,24.52,0.0
4.54,0.0497,1.5691,10.0468,0.00673,-0.00388,-0.01211,0.0,15.561,0.165,0.0,6.825,0.038,6.825,24.57,0.0
4.55,-0.2702,1.4869,10.1903,0.00402,-0.00216,0.00176,0.0,15.629,0.165,0.0,6.84,0.038,6.84,24.62,0.0
4.56,-0.0487,1.7549,9.6738,-0.00242,-0.00482,0.00936,0.0,15.698,0.165,0.0,6.855,0.038,6.855,24.68,0.0
4.57,-0.0266,1.469,10.092,0.00408,0.00892,0.00475,0.0,15.767,0.166,0.0,6.87,0.038,6.87,24.73,0.0
4.58,0.1275,1.3696,9.9381,-0.00213,0.00481,0.00728,0.0,15.835,0.166,0.0,6.885,0.038,6.885,24.79,0.0
4.59,-0.2292,1.696,9.5277,-0.00238,0.00637,-0.00196,0.0,15.904,0.166,0.0,6.9,0.037,6.9,24.84,0.0
4.6,0.4811,1.3128,9.8278,0.0005,0.00121,0.00787,0.0,15.974,0.167,0.0,6.915,0.037,6.915,24.89,0.0
4.61,0.1077,1.9662,10.3198,-0.00046,0.00043,0.00432,0.0,16.043,0.167,0.0,6.93,0.037,6.93,24.95,0.0
4.62,0.0095,1.5335,9.9965,-0.00101,0.002,-0.00776,0.0,16.112,0.168,0.0,6.945,0.037,6.945,25.0,0.0
4.63,0.34,1.6118,10.1509,-0.00902,0.00626,-0.00279,0.0,16.182,0.168,0.0,6.96,0.037,6.96,25.06,0.0
4.64,-0.1791,1.2344,9.9671,0.00679,0.0069,-0.00317,0.0,16.252,0.168,0.0,6.975,0.037,6.975,25.11,0.0
4.65,-0.3431,1.2727,10.1695,0.00614,0.00554,-0.0113,0.0,16.322,0.169,0.0,6.99,0.036,6.99,25.16,0.0
4.66,-0.1706,1.4589,9.2661,-0.00322,0.00057,0.00165,0.0,16.392,0.169,0.0,7.005,0.036,7.005,25.22,0.0
4.67,-0.1167,1.3841,9.8427,0.00421,0.00528,-0.00027,0.0,16.462,0.169,0.0,7.02,0.036,7.02,25.27,0.0
4.68,0.0279,1.4623,9.6428,0.00582,0.00774,0.00771,0.0,16.532,0.17,0.0,7.035,0.036,7.035,25.33,0.0
4.69,-0.3841,1.3148,9.4967,0.0062,-0.00789,0.00607,0.0,16.603,0.17,0.0,7.05,0.036,7.05,25.38,0.0
4.7,-0.337,1.7782,9.9407,-0.00467,0.00485,-0.00544,0.0,16.673,0.17,0.0,7.065,0.036,7.065,25.43,0.0
4.71,-0.3345,1.4143,9.1511,-0.00468,-0.00057,-0.00038,0.0,16.744,0.171,0.0,7.08,0.035,7.08,25.49,0.0
4.72,0.2434,1.5234,9.3818,-0.0028,-0.007,-0.003,0.0,16.815,0.171,0.0,7.095,0.035,7.095,25.54,0.0
4.73,-0.0693,1.4324,9.5123,0.01244,-0.00104,-0.00286,0.0,16.886,0.172,0.0,7.11,0.035,7.11,25.6,0.0
4.74,-0.0733,1.5561,9.8997,0.00426,0.00437,-0.00112,0.0,16.957,0.172,0.0,7.125,0.035,7.125,25.65,0.0
4.75,-0.4653,1.5003,9.7024,-0.00147,-0.01191,-0.00552,0.0,17.029,0.172,0.0,7.14,0.035,7.14,25.7,0.0
4.76,-0.0095,1.2684,9.9259,0.00638,0.01016,0.0098,0.0,17.1,0.173,0.0,7.155,0.034,7.155,25.76,0.0
4.77,0.0857,1.6438,10.1358,0.00033,0.00383,-0.00187,0.0,17.172,0.173,0.0,7.17,0.034,7.17,25.81,0.0
4.78,-0.2009,1.3456,9.9599,-0.00549,-0.00174,0.00614,0.0,17.244,0.173,0.0,7.185,0.034,7.185,25.87,0.0
4.79,-0.2261,2.0308,9.8358,0.00185,0.00383,-0.00489,0.0,17.316,0.174,0.0,7.2,0.034,7.2,25.92,0.0
4.8,0.0152,1.4201,8.9143,-0.00446,-0.00165,-0.0033,0.0,17.388,0.174,0.0,7.215,0.034,7.215,25.97,0.0
4.81,0.0884,1.4677,9.9396,7e-05,-0.00949,-0.00159,0.0,17.46,0.174,0.0,7.23,0.034,7.23,26.03,0.0
4.82,-0.0734,1.5528,9.5891,0.00187,-0.00688,0.00233,0.0,17.533,0.175,0.0,7.245,0.033,7.245,26.08,0.0
4.83,-0.0447,1.4968,9.4565,-0.0067,-0.00027,0.0043,0.0,17.605,0.175,0.0,7.26,0.033,7.26,26.14,0.0
4.84,-0.1696,1.5318,9.9721,0.00568,-0.00219,0.00095,0.0,17.678,0.175,0.0,7.275,0.033,7.275,26.19,0.0
4.85,0.0418,1.2209,9.9407,-0.00647,-0.00099,-0.00038,0.0,17.751,0.176,0.0,7.29,0.033,7.29,26.24,0.0
4.86,0.074,1.6187,9.3838,0.0016,-0.00021,0.00263,0.0,17.824,0.176,0.0,7.305,0.033,7.305,26.3,0.0
4.87,-0.2532,1.5196,9.8741,-0.00794,0.00098,0.00517,0.0,17.897,0.176,0.0,7.32,0.032,7.32,26.35,0.0
4.88,-0.3458,1.571,10.1643,-0.00434,-0.00208,-0.00126,0.0,17.971,0.177,0.0,7.335,0.032,7.335,26.41,0.0
4.89,-0.1956,1.0581,9.5175,-0.00536,-0.00194,-0.00215,0.0,18.044,0.177,0.0,7.35,0.032,7.35,26.46,0.0
4.9,-0.2327,1.481,10.5071,-0.0112,-0.00367,0.01703,0.0,18.118,0.177,0.0,7.365,0.032,7.365,26.51,0.0
4.91,0.0219,1.4692,9.5977,0.00891,0.00108,0.00093,0.0,18.192,0.177,0.0,7.38,0.032,7.38,26.57,0.0
4.92,-0.021,1.4612,9.9721,-0.00733,0.00014,-0.00087,0.0,18.266,0.178,0.0,7.395,0.031,7.395,26.62,0.0
4.93,-0.1323,1.5303,9.9,-0.004,0.00333,0.00309,0.0,18.34,0.178,0.0,7.41,0.031,7.41,26.68,0.0
4.94,0.2124,1.682,10.1242,-0.00179,-0.00189,-0.00594,0.0,18.414,0.178,0.0,7.425,0.031,7.425,26.73,0.0
4.95,0.0928,1.386,10.2547,0.00143,0.00486,0.00062,0.0,18.488,0.179,0.0,7.44,0.031,7.44,26.78,0.0
4.96,0.3049,1.6309,10.7036,0.00532,-0.00191,0.00785,0.0,18.563,0.179,0.0,7.455,0.031,7.455,26.84,0.0
4.97,0.1363,1.9643,9.3153,8e-05,-0.00368,0.00206,0.0,18.638,0.179,0.0,7.47,0.031,7.47,26.89,0.0
4.98,0.0417,1.1792,9.3489,0.00578,-0.00724,2e-05,0.0,18.712,0.18,0.0,7.485,0.03,7.485,26.95,0.0
4.99,-0.3723,1.31,8.8631,0.00637,0.00066,-0.00613,0.0,18.787,0.18,0.0,7.5,0.03,7.5,27.0,0.0
5.0,-0.159,1.6498,10.1183,-0.00791,0.00432,-0.00482,0.0,18.863,0.18,0.0,7.515,0.03,7.515,27.05,0.0
5.01,-0.2241,1.2982,10.1032,-0.00594,-0.00175,-0.00081,0.0,18.938,0.181,0.0,7.53,0.03,7.53,27.11,0.0
5.02,-0.028,1.7678,10.1889,-0.00884,-0.0026,-0.0012,0.0,19.013,0.181,0.0,7.545,0.03,7.545,27.16,0.0
5.03,-0.7405,1.8359,9.8427,0.00948,-0.00011,0.0081,0.0,19.089,0.181,0.0,7.56,0.029,7.56,27.22,0.0
5.04,-0.1829,1.4468,9.6991,-0.00436,-0.00374,-0.00373,0.0,19.165,0.181,0.0,7.575,0.029,7.575,27.27,0.0
5.05,0.0206,1.2595,10.0948,0.00202,-0.00076,-0.00338,0.0,19.241,0.182,0.0,7.59,0.029,7.59,27.32,0.0
5.06,-0.407,1.3218,9.6785,0.00091,0.00172,-0.00105,0.0,19.317,0.182,0.0,7.605,0.029,7.605,27.38,0.0
5.07,-0.2384,1.3832,10.3025,0.00014,0.00177,-0.00598,0.0,19.393,0.182,0.0,7.62,0.028,7.62,27.43,0.0
5.08,0.2616,1.5374,8.8707,0.0082,0.0085,-0.01118,0.0,19.469,0.183,0.0,7.635,0.028,7.635,27.49,0.0
5.09,-0.0242,1.5358,9.824,0.00247,0.00054,-0.00126,0.0,19.546,0.183,0.0,7.65,0.028,7.65,27.54,0.0
5.1,0.1216,1.8081,10.0153,-0.00877,-0.00715,0.0076,0.0,19.622,0.183,0.0,7.665,0.028,7.665,27.59,0.0
5.11,0.2188,1.4119,10.4774,-0.00386,-0.00421,-0.00303,0.0,19.699,0.183,0.0,7.68,0.028,7.68,27.65,0.0
5.12,-0.1665,1.0937,9.8458,-0.0052,0.00566,-0.00532,0.0,19.776,0.184,0.0,7.695,0.027,7.695,27.7,0.0
5.13,-0.4304,1.5387,9.3861,-0.00053,-0.00967,-0.011,0.0,19.853,0.184,0.0,7.71,0.027,7.71,27.76,0.0
5.14,-0.4647,1.248,9.4019,-0.01032,0.0007,0.00756,0.0,19.93,0.184,0.0,7.725,0.027,7.725,27.81,0.0
5.15,0.0096,1.4192,9.9828,0.00529,-0.00291,-0.00151,0.0,20.008,0.185,0.0,7.74,0.027,7.74,27.86,0.0
5.16,-0.1,1.5488,10.1305,0.00096,-0.00871,0.00197,0.0,20.085,0.185,0.0,7.755,0.027,7.755,27.92,0.0
5.17,-0.2238,1.6799,10.1844,0.00128,0.00699,0.01326,0.0,20.163,0.185,0.0,7.77,0.026,7.77,27.97,0.0
5.18,-0.0204,1.5214,9.7967,0.00205,0.00128,0.00151,0.0,20.241,0.185,0.0,7.785,0.026,7.785,28.03,0.0
5.19,-0.3414,1.8859,9.9307,-0.00171,-0.0024,0.00287,0.0,20.319,0.186,0.0,7.8,0.026,7.8,28.08,0.0
5.2,0.4995,1.31,9.839,0.00327,0.00826,0.00204,0.0,20.397,0.186,0.0,7.815,0.026,7.815,28.13,0.0
5.21,0.2822,1.5826,9.6954,0.00682,-0.00388,0.00735,0.0,20.475,0.186,0.0,7.83,0.026,7.83,28.19,0.0
5.22,0.2654,1.43,9.7326,-0.00213,0.00091,0.00194,0.0,20.554,0.186,0.0,7.845,0.025,7.845,28.24,0.0
5.23,-0.3021,1.5402,10.5262,0.0095,0.00293,0.00102,0.0,20.632,0.187,0.0,7.86,0.025,7.86,28.3,0.0
5.24,0.1696,1.3853,9.6304,-0.00468,0.01061,0.00448,0.0,20.711,0.187,0.0,7.875,0.025,7.875,28.35,0.0
5.25,0.0187,1.4806,10.1509,0.00083,0.00804,-0.00517,0.0,20.79,0.187,0.0,7.89,0.025,7.89,28.4,0.0
5.26,0.0373,1.7442,9.8751,0.00512,0.00982,0.00235,0.0,20.869,0.187,0.0,7.905,0.024,7.905,28.46,0.0
5.27,0.2555,1.587,9.7739,-0.00275,0.00025,-0.00193,0.0,20.948,0.188,0.0,7.92,0.024,7.92,28.51,0.0
5.28,-0.1824,1.236,10.1552,-0.00418,0.00211,-0.00567,0.0,21.028,0.188,0.0,7.935,0.024,7.935,28.57,0.0
5.29,-0.0066,1.7143,9.9481,-0.00547,0.00131,0.00767,0.0,21.107,0.188,0.0,7.95,0.024,7.95,28.62,0.0
5.3,0.2602,1.0432,9.2646,0.00134,0.00962,-0.00694,0.0,21.187,0.188,0.0,7.965,0.024,7.965,28.67,0.0
5.31,0.3745,1.5967,9.698,-0.00421,0.00084,-0.00432,0.0,21.267,0.189,0.0,7.98,0.023,7.98,28.73,0.0
5.32,0.3706,1.6298,9.8203,-0.00017,-0.01015,-0.00899,0.0,21.347,0.189,0.0,7.995,0.023,7.995,28.78,0.0
5.33,0.0912,1.695,9.8108,0.00256,-0.0066,0.00116,0.0,21.427,0.189,0.0,8.01,0.023,8.01,28.84,0.0
5.34,0.5577,1.3129,9.8324,-0.0026,0.0019,-0.00541,0.0,21.507,0.189,0.0,8.025,0.023,8.025,28.89,0.0
5.35,0.113,1.5536,9.9524,-0.00037,-0.00182,-0.00811,0.0,21.587,0.189,0.0,8.04,0.022,8.04,28.94,0.0
5.36,-0.1736,1.2734,10.3955,0.0037,-0.00252,-0.00372,0.0,21.668,0.19,0.0,8.055,0.022,8.055,29.0,0.0
5.37,0.2108,1.7868,9.5891,-0.0078,-0.0069,0.00259,0.0,21.749,0.19,0.0,8.07,0.022,8.07,29.05,0.0
5.38,-0.1173,1.7916,10.0675,0.00204,-0.00423,-0.00542,0.0,21.829,0.19,0.0,8.085,0.022,8.085,29.11,0.0
5.39,-0.2121,1.5317,9.7745,0.00037,-0.003,-0.00662,0.0,21.91,0.19,0.0,8.1,0.022,8.1,29.16,0.0
5.4,0.4728,1.6637,10.2332,-0.00424,0.00155,0.00061,0.0,21.992,0.191,0.0,8.115,0.021,8.115,29.21,0.0
5.41,-0.4456,1.8793,10.0076,-0.00386,-0.01256,0.00505,0.0,22.073,0.191,0.0,8.13,0.021,8.13,29.27,0.0
5.42,0.058,1.8993,9.6131,-0.00394,0.00032,-0.00077,0.0,22.154,0.191,0.0,8.145,0.021,8.145,29.32,0.0
5.43,0.085,1.3008,9.0887,-0.00264,-0.00722,0.00526,0.0,22.236,0.191,0.0,8.16,0.021,8.16,29.38,0.0
5.44,-0.1246,1.5065,10.347,-0.00168,0.00121,0.00021,0.0,22.318,0.191,0.0,8.175,0.02,8.175,29.43,0.0
5.45,-0.1007,1.4512,10.1487,-0.00206,-0.01079,-0.00336,0.0,22.4,0.192,0.0,8.19,0.02,8.19,29.48,0.0
5.46,-0.1626,1.595,9.4096,0.00771,0.00415,0.00476,0.0,22.482,0.192,0.0,8.205,0.02,8.205,29.54,0.0
5.47,0.3005,1.5519,10.0275,-0.00278,-0.00919,-0.00786,0.0,22.564,0.192,0.0,8.22,0.02,8.22,29.59,0.0
5.48,0.0929,0.9269,10.2458,-0.00049,-0.00227,0.01324,0.0,22.646,0.192,0.0,8.235,0.02,8.235,29.65,0.0
5.49,-0.2964,1.4478,10.3996,-0.00151,0.00337,0.00146,0.0,22.729,0.192,0.0,8.25,0.019,8.25,29.7,0.0
5.5,0.16,1.7616,9.9893,-0.00683,-0.00198,-0.0059,0.0,22.811,0.193,0.0,8.265,0.019,8.265,29.75,0.0
5.51,-0.088,1.5669,10.0467,0.00442,0.00145,-0.00079,0.0,22.894,0.193,0.0,8.28,0.019,8.28,29.81,0.0
5.52,0.2446,1.6227,9.9708,-0.00904,-0.00949,-0.00159,0.0,22.977,0.193,0.0,8.295,0.019,8.295,29.86,0.0
5.53,-0.3668,1.464,10.068,-0.0013,0.00798,0.00808,0.0,23.06,0.193,0.0,8.31,0.018,8.31,29.92,0.0
5.54,0.4648,1.5899,9.8609,-0.00554,0.00332,-0.00453,0.0,23.143,0.193,0.0,8.325,0.018,8.325,29.97,0.0
5.55,0.2248,1.5336,10.0776,-0.00385,0.003,0.00866,0.0,23.227,0.193,0.0,8.34,0.018,8.34,30.02,0.0
5.56,0.0775,1.7805,9.5616,0.00141,0.01181,0.00836,0.0,23.31,0.194,0.0,8.355,0.018,8.355,30.08,0.0
5.57,-0.2085,1.5149,9.6355,0.00413,-0.00404,0.00254,0.0,23.394,0.194,0.0,8.37,0.017,8.37,30.13,0.0
5.58,-0.218,1.4539,9.7585,0.00284,0.00206,0.00104,0.0,23.478,0.194,0.0,8.385,0.017,8.385,30.19,0.0
5.59,0.1498,1.6873,10.2245,-0.00273,0.00138,0.00783,0.0,23.562,0.194,0.0,8.4,0.017,8.4,30.24,0.0
5.6,0.4691,1.5167,9.7656,0.00748,-0.00267,-0.0144,0.0,23.646,0.194,0.0,8.415,0.017,8.415,30.29,0.0
5.61,-0.099,1.6592,9.8501,-0.00348,0.0001,-0.00136,0.0,23.73,0.194,0.0,8.43,0.017,8.43,30.35,0.0
5.62,-0.0351,1.3973,9.87,0.00022,0.00777,-0.00012,0.0,23.815,0.195,0.0,8.445,0.016,8.445,30.4,0.0
5.63,0.1224,1.448,9.4566,-0.00063,0.00515,0.00481,0.0,23.899,0.195,0.0,8.46,0.016,8.46,30.46,0.0
5.64,-0.1019,1.513,10.153,0.00081,0.00562,0.00406,0.0,23.984,0.195,0.0,8.475,0.016,8.475,30.51,0.0
5.65,-0.456,1.663,10.1061,0.00662,-0.00403,0.00602,0.0,24.069,0.195,0.0,8.49,0.016,8.49,30.56,0.0
5.66,-0.1434,1.6764,9.4702,0.00631,0.00556,0.00136,0.0,24.154,0.195,0.0,8.505,0.015,8.505,30.62,0.0
5.67,-0.0118,1.7614,9.9686,-0.00635,-0.00684,0.0051,0.0,24.239,0.195,0.0,8.52,0.015,8.52,30.67,0.0
5.68,-0.1514,1.415,10.0999,-0.00603,0.0033,0.00385,0.0,24.325,0.196,0.0,8.535,0.015,8.535,30.73,0.0
5.69,0.0294,1.3175,10.4369,-0.01083,-0.0003,0.0067,0.0,24.41,0.196,0.0,8.55,0.015,8.55,30.78,0.0
5.7,-0.1664,1.5124,9.8544,0.0027,0.00877,-0.00509,0.0,24.496,0.196,0.0,8.565,0.014,8.565,30.83,0.0
5.71,0.2449,1.4685,9.1545,-0.00145,0.00317,-0.00554,0.0,24.582,0.196,0.0,8.58,0.014,8.58,30.89,0.0
5.72,-0.0378,1.5151,10.0253,-0.00466,0.00103,-0.00656,0.0,24.668,0.196,0.0,8.595,0.014,8.595,30.94,0.0
5.73,-0.1136,1.3043,9.91,-0.00491,0.00312,0.00448,0.0,24.754,0.196,0.0,8.61,0.014,8.61,31.0,0.0
5.74,0.1268,1.7291,9.4378,0.00066,0.00361,0.00074,0.0,24.84,0.196,0.0,8.625,0.013,8.625,31.05,0.0
5.75,-0.1933,1.4589,9.7384,-0.00884,-0.0042,0.00121,0.0,24.926,0.197,0.0,8.64,0.013,8.64,31.1,0.0
5.76,0.2831,1.3751,9.8792,-0.00016,0.01094,-0.00373,0.0,25.013,0.197,0.0,8.655,0.013,8.655,31.16,0.0
5.77,0.0026,1.1515,10.0256,0.00044,0.00222,0.0011,0.0,25.1,0.197,0.0,8.67,0.013,8.67,31.21,0.0
5.78,-0.2188,1.6062,10.0792,0.00473,-0.00462,0.00483,0.0,25.186,0.197,0.0,8.685,0.012,8.685,31.27,0.0
5.79,-0.4257,1.4334,10.4027,-0.00819,-0.00697,-0.00111,0.0,25.273,0.197,0.0,8.7,0.012,8.7,31.32,0.0
5.8,0.181,1.6717,9.9304,-0.00334,-0.00013,-0.00149,0.0,25.361,0.197,0.0,8.715,0.012,8.715,31.37,0.0
5.81,-0.3144,1.6619,10.1985,-0.00592,0.00415,0.00127,0.0,25.448,0.197,0.0,8.73,0.012,8.73,31.43,0.0
5.82,-0.3188,1.2328,9.2994,0.0048,0.00118,0.00246,0.0,25.535,0.197,0.0,8.745,0.011,8.745,31.48,0.0
5.83,-0.2549,1.5207,9.9768,0.00145,-0.00045,0.00956,0.0,25.623,0.197,0.0,8.76,0.011,8.76,31.54,0.0
5.84,-0.0511,1.4374,9.7245,-0.00303,-0.00574,0.00254,0.0,25.711,0.198,0.0,8.775,0.011,8.775,31.59,0.0
5.85,-0.0735,1.3866,9.7019,-0.00409,0.00893,0.00505,0.0,25.799,0.198,0.0,8.79,0.011,8.79,31.64,0.0
5.86,-0.1148,1.5212,9.3987,0.00085,0.00027,0.00457,0.0,25.887,0.198,0.0,8.805,0.01,8.805,31.7,0.0
5.87,0.1499,1.466,9.4952,0.0032,0.00324,-0.00731,0.0,25.975,0.198,0.0,8.82,0.01,8.82,31.75,0.0
5.88,-0.1978,1.4289,10.3436,-0.00183,-0.00743,-0.00191,0.0,26.063,0.198,0.0,8.835,0.01,8.835,31.81,0.0
5.89,0.2908,1.4123,10.1443,-0.00846,-0.00233,0.00133,0.0,26.152,0.198,0.0,8.85,0.01,8.85,31.86,0.0
5.9,-0.0023,1.2175,9.8931,-0.00592,0.0019,-0.00149,0.0,26.24,0.198,0.0,8.865,0.01,8.865,31.91,0.0
5.91,0.1314,1.7099,9.4538,-0.00182,0.0034,-0.00166,0.0,26.329,0.198,0.0,8.88,0.009,8.88,31.97,0.0
5.92,-0.1848,1.349,10.8085,-0.00226,-0.00323,-0.00234,0.0,26.418,0.198,0.0,8.895,0.009,8.895,32.02,0.0
5.93,-0.7446,1.6576,10.09,0.00548,-0.00606,0.00149,0.0,26.507,0.198,0.0,8.91,0.009,8.91,32.08,0.0
5.94,0.5407,1.7505,10.0619,-0.00281,0.00262,0.00811,0.0,26.596,0.199,0.0,8.925,0.009,8.925,32.13,0.0
5.95,0.0583,1.3199,10.4046,-0.01105,0.00063,0.00479,0.0,26.686,0.199,0.0,8.94,0.008,8.94,32.18,0.0
5.96,0.0554,1.1542,9.6261,0.0084,-0.00227,-0.00708,0.0,26.775,0.199,0.0,8.955,0.008,8.955,32.24,0.0
5.97,0.1041,1.5547,10.2194,0.011,0.00726,-0.0012,0.0,26.865,0.199,0.0,8.97,0.008,8.97,32.29,0.0
5.98,-0.2928,1.5977,9.7859,0.00414,0.00673,0.00697,0.0,26.955,0.199,0.0,8.985,0.008,8.985,32.35,0.0
5.99,-0.0922,1.6902,10.3404,0.0019,-0.00735,0.00177,0.0,27.045,0.199,0.0,9.0,0.007,9.0,32.4,0.0
6.0,0.4295,1.8084,9.9539,0.00335,0.00504,0.00452,0.0,27.135,0.199,0.0,9.015,0.007,9.015,32.45,0.0
6.01,-0.4908,1.6143,9.467,0.00089,-0.00488,0.00473,0.0,27.225,0.199,0.0,9.03,0.007,9.03,32.51,0.0
6.02,-0.5238,0.99,9.9022,0.00262,0.00277,-0.00818,0.0,27.316,0.199,0.0,9.045,0.007,9.045,32.56,0.0
6.03,-0.1219,1.7318,9.5512,0.00304,0.00513,-0.00324,0.0,27.406,0.199,0.0,9.06,0.006,9.06,32.62,0.0
6.04,-0.0624,1.5373,9.5815,0.00361,-0.00045,-0.00493,0.0,27.497,0.199,0.0,9.075,0.006,9.075,32.67,0.0
6.05,0.0775,1.2903,9.5002,0.00622,0.00583,0.00212,0.0,27.588,0.199,0.0,9.09,0.006,9.09,32.72,0.0
6.06,-0.3093,1.8214,9.4788,-0.00173,-0.00417,0.0007,0.0,27.679,0.199,0.0,9.105,0.006,9.105,32.78,0.0
6.07,0.131,1.7274,9.628,0.00098,0.00342,-0.00198,0.0,27.77,0.199,0.0,9.12,0.005,9.12,32.83,0.0
6.08,-0.1145,1.6466,10.2418,-0.00108,-0.00539,-0.00445,0.0,27.862,0.199,0.0,9.135,0.005,9.135,32.89,0.0
6.09,0.058,1.2161,10.0582,-0.00763,0.00325,-0.00157,0.0,27.953,0.2,0.0,9.15,0.005,9.15,32.94,0.0
6.1,-0.1052,1.6061,8.5569,0.00226,0.00188,-0.00173,0.0,28.045,0.2,0.0,9.165,0.005,9.165,32.99,0.0
6.11,-0.2842,1.563,9.3368,-0.00213,0.0035,0.00201,0.0,28.137,0.2,0.0,9.18,0.004,9.18,33.05,0.0
6.12,0.3546,1.5934,9.682,0.00046,-0.00644,-0.00421,0.0,28.229,0.2,0.0,9.195,0.004,9.195,33.1,0.0
6.13,0.0241,1.5121,10.4582,0.00847,-0.00307,-0.00919,0.0,28.321,0.2,0.0,9.21,0.004,9.21,33.16,0.0
6.14,0.0363,1.1446,9.8859,0.00119,-0.00629,0.00225,0.0,28.413,0.2,0.0,9.225,0.004,9.225,33.21,0.0
6.15,0.1922,1.4002,10.2064,-0.0022,-0.00318,0.00116,0.0,28.505,0.2,0.0,9.24,0.003,9.24,33.26,0.0
6.16,-0.5547,1.5757,9.7621,-0.00395,-0.00031,0.00317,0.0,28.598,0.2,0.0,9.255,0.003,9.255,33.32,0.0
6.17,-0.1837,1.5217,10.2351,0.00085,-0.00372,0.00149,0.0,28.691,0.2,0.0,9.27,0.003,9.27,33.37,0.0
6.18,0.2967,1.5882,9.8297,-0.00329,0.00366,-0.00499,0.0,28.783,0.2,0.0,9.285,0.003,9.285,33.43,0.0
6.19,0.3908,1.4501,9.9491,-0.00069,0.00202,0.00755,0.0,28.876,0.2,0.0,9.3,0.002,9.3,33.48,0.0
6.2,0.0429,1.6289,9.8751,-0.00336,0.00659,0.00208,0.0,28.97,0.2,0.0,9.315,0.002,9.315,33.53,0.0
6.21,0.0588,1.7607,9.9399,-0.00718,-0.0015,3e-05,0.0,29.063,0.2,0.0,9.33,0.002,9.33,33.59,0.0
6.22,0.1067,1.2735,10.1856,-0.00029,0.00285,0.00529,0.0,29.156,0.2,0.0,9.345,0.002,9.345,33.64,0.0
6.23,-0.0189,1.3819,9.6275,-0.00434,0.00151,-0.00494,0.0,29.25,0.2,0.0,9.36,0.001,9.36,33.7,0.0
6.24,-0.0497,1.2345,9.3696,0.00222,-0.00045,0.01255,0.0,29.344,0.2,0.0,9.375,0.001,9.375,33.75,0.0
6.25,-0.2275,1.4585,9.5599,0.00869,0.00178,0.00232,0.0,29.438,0.2,0.0,9.39,0.001,9.39,33.8,0.0
6.26,-0.165,1.4078,10.0251,0.00682,0.00217,-0.00456,0.0,29.532,0.2,0.0,9.405,0.001,9.405,33.86,0.0
6.27,-0.3498,1.4578,10.1819,0.00035,0.0093,0.00369,0.0,29.626,0.2,0.0,9.42,0.0,9.42,33.91,0.0
6.28,0.0612,1.4319,9.6378,0.00765,-0.00155,0.00286,0.0,29.72,0.2,0.0,9.435,0.0,9.435,33.97,0.0
6.29,0.115,1.6935,9.4947,0.00758,0.00953,-0.00671,0.0,29.815,0.2,0.0,9.45,-0.0,9.45,34.02,0.0
6.3,-0.2338,1.9437,9.0653,0.00372,0.00566,0.00839,0.0,29.909,0.2,0.0,9.465,-0.0,9.465,34.07,0.0
6.31,0.4928,1.7936,10.2437,-4e-05,0.00505,-0.00178,0.0,30.004,0.2,0.0,9.48,-0.001,9.48,34.13,0.0
6.32,-0.2503,1.1544,9.5456,-0.0035,0.00297,0.0017,0.0,30.099,0.2,0.0,9.495,-0.001,9.495,34.18,0.0
6.33,0.0995,1.3843,9.7443,-0.0025,-0.00288,0.00082,0.0,30.194,0.2,0.0,9.51,-0.001,9.51,34.24,0.0
6.34,0.1406,1.4502,9.6468,-0.00277,0.00348,-0.0051,0.0,30.289,0.2,0.0,9.525,-0.001,9.525,34.29,0.0
6.35,0.0094,1.6122,10.3093,-0.00029,-0.00386,-0.0019,0.0,30.385,0.2,0.0,9.54,-0.002,9.54,34.34,0.0
6.36,-0.1907,1.9223,8.9477,-0.00086,0.01025,0.00674,0.0,30.48,0.2,0.0,9.555,-0.002,9.555,34.4,0.0
6.37,0.4592,1.7293,9.8906,0.00424,0.00688,-0.00092,0.0,30.576,0.2,0.0,9.57,-0.002,9.57,34.45,0.0
6.38,-0.2659,1.4266,9.8348,-0.00031,0.00195,0.00018,0.0,30.672,0.2,0.0,9.585,-0.002,9.585,34.51,0.0
6.39,0.0939,1.7033,9.5633,-0.00314,-0.00778,-0.00258,0.0,30.768,0.2,0.0,9.6,-0.003,9.6,34.56,0.0
6.4,0.2244,1.7261,10.0071,-0.00891,0.00826,-0.00694,0.0,30.864,0.2,0.0,9.615,-0.003,9.615,34.61,0.0
6.41,-0.0534,1.4359,10.3762,0.00235,-0.00393,-0.00169,0.0,30.96,0.2,0.0,9.63,-0.003,9.63,34.67,0.0
6.42,0.4451,1.7655,9.6605,-0.00319,-0.00866,-0.00264,0.0,31.057,0.2,0.0,9.645,-0.003,9.645,34.72,0.0
6.43,-0.2234,1.663,10.5428,-0.00325,-0.00178,-0.00809,0.0,31.153,0.2,0.0,9.66,-0.004,9.66,34.78,0.0
6.44,0.3368,1.5257,9.9753,0.00098,0.00025,0.00386,0.0,31.25,0.2,0.0,9.675,-0.004,9.675,34.83,0.0
6.45,-0.1709,1.4903,9.442,-0.01001,-0.00244,0.00255,0.0,31.347,0.2,0.0,9.69,-0.004,9.69,34.88,0.0
6.46,0.0523,1.5824,10.5328,0.00347,-0.00324,-0.00265,0.0,31.444,0.2,0.0,9.705,-0.004,9.705,34.94,0.0
6.47,-0.105,1.4455,9.9614,-0.0076,-0.00334,0.00084,0.0,31.541,0.2,0.0,9.72,-0.005,9.72,34.99,0.0
6.48,-0.1223,1.7561,10.0722,0.00371,-0.00211,-0.00193,0.0,31.639,0.199,0.0,9.735,-0.005,9.735,35.05,0.0
6.49,-0.2457,1.4791,10.2589,0.00087,-0.00641,0.00304,0.0,31.736,0.199,0.0,9.75,-0.005,9.75,35.1,0.0
6.5,-0.0254,1.8961,10.1676,-0.00556,0.00354,-0.01371,0.0,31.834,0.199,0.0,9.765,-0.005,9.765,35.15,0.0
6.51,0.1942,1.7267,9.2434,-0.00499,0.00808,0.00274,0.0,31.932,0.199,0.0,9.78,-0.006,9.78,35.21,0.0
6.52,-0.1546,1.2717,9.1783,-0.00026,-0.00019,-0.00368,0.0,32.03,0.199,0.0,9.795,-0.006,9.795,35.26,0.0
6.53,0.3889,1.6254,10.1476,-0.00165,0.005,-0.00387,0.0,32.128,0.199,0.0,9.81,-0.006,9.81,35.32,0.0
6.54,0.2188,1.6454,10.0852,0.00104,-0.0017,-0.00215,0.0,32.226,0.199,0.0,9.825,-0.006,9.825,35.37,0.0
6.55,0.14,1.1414,10.2081,-0.00938,-0.00341,0.00278,0.0,32.324,0.199,0.0,9.84,-0.007,9.84,35.42,0.0
6.56,-0.1482,1.3774,9.5763,-0.00289,0.00618,-0.00401,0.0,32.423,0.199,0.0,9.855,-0.007,9.855,35.48,0.0
6.57,-0.1593,1.0047,10.1554,-0.0066,-0.00226,0.0068,0.0,32.522,0.199,0.0,9.87,-0.007,9.87,35.53,0.0
6.58,-0.1133,1.7993,9.9837,0.00013,0.00399,0.00421,0.0,32.62,0.199,0.0,9.885,-0.007,9.885,35.59,0.0
6.59,0.6905,1.1749,10.0708,0.00122,-0.00179,0.00857,0.0,32.719,0.199,0.0,9.9,-0.008,9.9,35.64,0.0
6.6,0.3802,1.5854,9.5984,-0.00208,-0.00665,0.00012,0.0,32.819,0.199,0.0,9.915,-0.008,9.915,35.69,0.0
6.61,-0.3351,1.3649,9.8819,-0.0048,0.00329,0.00562,0.0,32.918,0.199,0.0,9.93,-0.008,9.93,35.75,0.0
6.62,-0.337,1.7572,10.1103,0.00466,0.00559,-0.00219,0.0,33.017,0.199,0.0,9.945,-0.008,9.945,35.8,0.0
6.63,-0.6171,1.1193,9.8107,-0.00829,0.00749,-0.00876,0.0,33.117,0.198,0.0,9.96,-0.009,9.96,35.86,0.0
6.64,0.1153,1.1862,9.7119,-0.00055,0.00035,0.00412,0.0,33.217,0.198,0.0,9.975,-0.009,9.975,35.91,0.0
6.65,0.0038,1.6855,9.7686,0.00182,0.00173,-0.00328,0.0,33.317,0.198,0.0,9.99,-0.009,9.99,35.96,0.0
6.66,-0.1554,1.7543,9.6164,-0.00112,-0.00136,0.00051,0.0,33.417,0.198,0.0,10.005,-0.009,10.005,36.02,0.0
6.67,-0.0616,1.32,9.9296,0.00655,-0.00099,-0.00079,0.0,33.517,0.198,0.0,10.02,-0.01,10.02,36.07,0.0
6.68,-0.0733,1.2751,9.614,0.00149,0.00147,-0.00539,0.0,33.617,0.198,0.0,10.035,-0.01,10.035,36.13,0.0
6.69,-0.0588,1.3586,9.9871,-0.00324,0.00566,0.00115,0.0,33.718,0.198,0.0,10.05,-0.01,10.05,36.18,0.0
6.7,0.3685,1.6438,10.3128,0.00293,-0.00493,0.00436,0.0,33.818,0.198,0.0,10.065,-0.01,10.065,36.23,0.0
6.71,-0.1337,1.0667,9.9744,-0.0033,0.0018,0.00015,0.0,33.919,0.198,0.0,10.08,-0.011,10.08,36.29,0.0
6.72,-0.4381,1.457,9.2911,-0.00697,0.00309,-0.00573,0.0,34.02,0.198,0.0,10.095,-0.011,10.095,36.34,0.0
6.73,-0.0022,1.4682,10.1797,0.01152,0.004,0.00795,0.0,34.121,0.197,0.0,10.11,-0.011,10.11,36.4,0.0
6.74,0.3686,1.1488,9.7649,-0.00174,-0.00466,-0.00521,0.0,34.222,0.197,0.0,10.125,-0.011,10.125,36.45,0.0
6.75,-0.4354,1.5221,9.62,0.00369,0.00896,0.00021,0.0,34.324,0.197,0.0,10.14,-0.012,10.14,36.5,0.0
6.76,-0.3082,1.7878,9.5452,0.00418,0.00351,-0.00114,0.0,34.425,0.197,0.0,10.155,-0.012,10.155,36.56,0.0
6.77,-0.177,1.7356,9.6177,0.00462,-0.00077,0.00222,0.0,34.527,0.197,0.0,10.17,-0.012,10.17,36.61,0.0
6.78,0.0528,1.7073,9.9086,0.00473,0.00263,0.00107,0.0,34.629,0.197,0.0,10.185,-0.012,10.185,36.67,0.0
6.79,-0.1434,2.014,9.5793,0.00203,0.00516,-8e-05,0.0,34.731,0.197,0.0,10.2,-0.013,10.2,36.72,0.0
6.8,-0.3686,1.3938,10.0424,0.00822,0.00097,-0.01367,0.0,34.833,0.197,0.0,10.215,-0.013,10.215,36.77,0.0
6.81,0.2919,1.4004,9.7316,0.00243,-0.00015,0.00071,0.0,34.935,0.196,0.0,10.23,-0.013,10.23,36.83,0.0
6.82,-0.3834,1.7296,9.7939,0.00482,0.0066,-0.00063,0.0,35.038,0.196,0.0,10.245,-0.013,10.245,36.88,0.0
6.83,-0.0386,1.5698,10.3572,0.00215,0.00717,-0.00036,0.0,35.14,0.196,0.0,10.26,-0.014,10.26,36.94,0.0
6.84,-0.0027,1.3551,9.678,0.00342,0.00042,0.00384,0.0,35.243,0.196,0.0,10.275,-0.014,10.275,36.99,0.0
6.85,0.509,1.7109,10.2276,0.00152,0.00275,0.00403,0.0,35.346,0.196,0.0,10.29,-0.014,10.29,37.04,0.0
6.86,-0.3763,1.7091,9.4034,-0.00415,-0.00254,0.00204,0.0,35.449,0.196,0.0,10.305,-0.014,10.305,37.1,0.0
6.87,0.0147,1.3481,9.6988,-0.00435,-0.00115,-0.00089,0.0,35.552,0.196,0.0,10.32,-0.014,10.32,37.15,0.0
6.88,0.5268,1.5359,9.8091,-0.00086,-0.00459,-0.00096,0.0,35.656,0.195,0.0,10.335,-0.015,10.335,37.21,0.0
6.89,0.2335,1.3805,9.7685,0.00495,0.00121,0.00959,0.0,35.759,0.195,0.0,10.35,-0.015,10.35,37.26,0.0
6.9,0.1547,1.4968,9.418,0.00354,-0.00104,0.00128,0.0,35.863,0.195,0.0,10.365,-0.015,10.365,37.31,0.0
6.91,0.0038,1.6821,10.2861,0.00172,0.00865,0.00363,0.0,35.967,0.195,0.0,10.38,-0.015,10.38,37.37,0.0
6.92,-0.1104,1.2724,9.841,-0.00411,0.00683,0.00064,0.0,36.071,0.195,0.0,10.395,-0.016,10.395,37.42,0.0
6.93,0.477,1.5051,9.6858,0.01263,-0.00321,-0.00468,0.0,36.175,0.195,0.0,10.41,-0.016,10.41,37.48,0.0
6.94,-0.38,1.3915,9.7026,-0.00519,0.00557,0.00077,0.0,36.279,0.195,0.0,10.425,-0.016,10.425,37.53,0.0
6.95,-0.6904,1.134,9.702,0.00606,-0.00137,0.00761,0.0,36.383,0.194,0.0,10.44,-0.016,10.44,37.58,0.0
6.96,-0.0008,1.326,9.3461,-0.00649,0.00499,0.00103,0.0,36.488,0.194,0.0,10.455,-0.017,10.455,37.64,0.0
6.97,0.2112,1.3684,10.7946,-0.00391,-0.00647,0.00103,0.0,36.593,0.194,0.0,10.47,-0.017,10.47,37.69,0.0
6.98,0.2676,1.2568,10.3352,-0.00486,0.00025,0.00483,0.0,36.697,0.194,0.0,10.485,-0.017,10.485,37.75,0.0
6.99,-0.1444,1.5798,9.7077,0.00325,0.0041,0.00215,0.0,36.802,0.194,0.0,10.5,-0.017,10.5,37.8,0.0
7.0,0.2893,1.5321,10.1427,-0.01029,-0.0033,0.00442,0.0,36.908,0.194,0.0,10.515,-0.018,10.515,37.85,0.0
7.01,-0.1745,1.2131,9.4527,0.00793,0.00314,0.00214,0.0,37.013,0.193,0.0,10.53,-0.018,10.53,37.91,0.0
7.02,-0.0233,1.4695,10.399,0.00086,0.00498,0.00546,0.0,37.118,0.193,0.0,10.545,-0.018,10.545,37.96,0.0
7.03,-0.1195,1.3788,10.0117,0.00755,-0.01242,-0.00525,0.0,37.224,0.193,0.0,10.56,-0.018,10.56,38.02,0.0
7.04,0.3233,1.3805,9.8295,-0.00614,0.00803,0.00342,0.0,37.33,0.193,0.0,10.575,-0.018,10.575,38.07,0.0
7.05,0.1547,1.4137,9.8177,-0.00019,0.0025,0.00079,0.0,37.436,0.193,0.0,10.59,-0.019,10.59,38.12,0.0
7.06,0.1511,1.4367,9.6112,0.00231,0.00011,-0.00219,0.0,37.542,0.192,0.0,10.605,-0.019,10.605,38.18,0.0
7.07,0.0571,1.5058,9.819,0.00147,-0.00217,0.00694,0.0,37.648,0.192,0.0,10.62,-0.019,10.62,38.23,0.0
7.08,0.2838,1.3754,9.6976,0.005,-0.0029,0.0046,0.0,37.754,0.192,0.0,10.635,-0.019,10.635,38.29,0.0
7.09,0.1482,1.2761,9.3031,0.00337,-0.00053,0.00561,0.0,37.861,0.192,0.0,10.65,-0.02,10.65,38.34,0.0
7.1,-0.0067,1.3869,9.7227,-0.00618,0.00264,-0.00442,0.0,37.967,0.192,0.0,10.665,-0.02,10.665,38.39,0.0
7.11,0.2685,1.5363,9.8972,-0.00246,-0.00283,-0.00491,0.0,38.074,0.191,0.0,10.68,-0.02,10.68,38.45,0.0
7.12,-0.2446,1.728,9.6566,-0.00076,-0.00355,0.00166,0.0,38.181,0.191,0.0,10.695,-0.02,10.695,38.5,0.0
7.13,-0.5531,1.4761,9.7818,-0.00298,0.00236,-0.0022,0.0,38.288,0.191,0.0,10.71,-0.021,10.71,38.56,0.0
7.14,-0.0052,1.3746,9.7352,-0.00158,-0.00938,0.00018,0.0,38.395,0.191,0.0,10.725,-0.021,10.725,38.61,0.0
7.15,-0.1597,1.3725,9.8461,-0.00247,-0.0027,0.00661,0.0,38.503,0.191,0.0,10.74,-0.021,10.74,38.66,0.0
7.16,0.0495,1.3782,9.599,-0.00616,0.00208,-0.00027,0.0,38.61,0.19,0.0,10.755,-0.021,10.755,38.72,0.0
7.17,0.0401,1.5448,9.7342,0.00534,0.00856,-0.0005,0.0,38.718,0.19,0.0,10.77,-0.021,10.77,38.77,0.0
7.18,-0.2913,1.7175,9.7178,-0.00227,-0.00795,0.0117,0.0,38.826,0.19,0.0,10.785,-0.022,10.785,38.83,0.0
7.19,-0.2302,1.2891,9.1034,-0.00259,-0.00259,-0.00255,0.0,38.934,0.19,0.0,10.8,-0.022,10.8,38.88,0.0
7.2,0.3187,1.3151,9.4617,-0.00473,-0.00576,-0.0003,0.0,39.042,0.19,0.0,10.815,-0.022,10.815,38.93,0.0
7.21,-0.0741,1.7164,10.0306,0.00466,-0.00094,0.00061,0.0,39.15,0.189,0.0,10.83,-0.022,10.83,38.99,0.0
7.22,0.0471,1.6577,9.4964,-0.0053,0.00075,-0.00592,0.0,39.259,0.189,0.0,10.845,-0.023,10.845,39.04,0.0
7.23,0.0274,1.7661,9.6397,0.0012,0.00594,0.0024,0.0,39.367,0.189,0.0,10.86,-0.023,10.86,39.1,0.0
7.24,-0.2052,1.6676,10.1238,-0.00158,0.00143,0.00662,0.0,39.476,0.189,0.0,10.875,-0.023,10.875,39.15,0.0
7.25,0.0858,1.4529,9.6919,-0.00127,-0.00133,0.00058,0.0,39.585,0.188,0.0,10.89,-0.023,10.89,39.2,0.0
7.26,0.1231,1.6603,10.2052,-0.00338,0.00239,-0.00046,0.0,39.694,0.188,0.0,10.905,-0.023,10.905,39.26,0.0
7.27,-0.0865,1.5291,9.5272,-0.00076,-0.00428,-0.00558,0.0,39.803,0.188,0.0,10.92,-0.024,10.92,39.31,0.0
7.28,0.0959,1.6701,9.0977,0.00392,0.00284,-0.00627,0.0,39.913,0.188,0.0,10.935,-0.024,10.935,39.37,0.0
7.29,0.2783,1.1102,10.0595,-0.00464,0.00054,-0.00242,0.0,40.022,0.187,0.0,10.95,-0.024,10.95,39.42,0.0
7.3,0.0328,1.61,9.7369,-0.00558,0.00341,-0.00549,0.0,40.132,0.187,0.0,10.965,-0.024,10.965,39.47,0.0
7.31,0.3357,1.5187,10.1432,0.00321,-0.00285,-0.00266,0.0,40.242,0.187,0.0,10.98,-0.025,10.98,39.53,0.0
7.32,-0.2562,1.4233,9.9682,0.00347,0.00283,0.00069,0.0,40.352,0.187,0.0,10.995,-0.025,10.995,39.58,0.0
7.33,0.6409,1.6059,9.9199,0.00038,-0.00088,0.00421,0.0,40.462,0.186,0.0,11.01,-0.025,11.01,39.64,0.0
7.34,-0.362,1.4727,9.4362,0.00254,-0.00227,-0.00499,0.0,40.572,0.186,0.0,11.025,-0.025,11.025,39.69,0.0
7.35,-0.0147,1.3623,10.6801,-0.00403,0.00247,-0.00013,0.0,40.682,0.186,0.0,11.04,-0.025,11.04,39.74,0.0
7.36,-0.2492,1.449,10.2098,0.00062,-0.00072,0.00655,0.0,40.793,0.186,0.0,11.055,-0.026,11.055,39.8,0.0
7.37,-0.4267,1.7158,9.9214,-0.01137,0.01011,-0.0008,0.0,40.904,0.185,0.0,11.07,-0.026,11.07,39.85,0.0
7.38,0.218,1.55,10.0944,0.00047,-0.00552,-0.00365,0.0,41.014,0.185,0.0,11.085,-0.026,11.085,39.91,0.0
7.39,-0.0826,1.5005,9.8549,0.00364,-0.00096,-0.00609,0.0,41.125,0.185,0.0,11.1,-0.026,11.1,39.96,0.0
7.4,0.1345,1.759,9.8575,-0.00564,0.00049,-0.00187,0.0,41.237,0.185,0.0,11.115,-0.027,11.115,40.01,0.0
7.41,-0.5448,1.3667,10.5446,0.00786,0.00496,-0.00722,0.0,41.348,0.184,0.0,11.13,-0.027,11.13,40.07,0.0
7.42,0.4909,1.5933,9.4075,-0.00785,-0.00981,0.00223,0.0,41.459,0.184,0.0,11.145,-0.027,11.145,40.12,0.0
7.43,0.3684,1.5728,9.4487,0.00422,-0.00028,-0.00083,0.0,41.571,0.184,0.0,11.16,-0.027,11.16,40.18,0.0
7.44,-0.133,1.3735,9.5129,-0.00774,-0.00087,-0.0004,0.0,41.683,0.184,0.0,11.175,-0.027,11.175,40.23,0.0
7.45,0.2441,1.3192,10.1329,0.00132,0.00105,-0.00046,0.0,41.795,0.183,0.0,11.19,-0.028,11.19,40.28,0.0
7.46,-0.1539,1.4232,10.4964,0.00715,0.00105,-0.00441,0.0,41.907,0.183,0.0,11.205,-0.028,11.205,40.34,0.0
7.47,0.3579,1.6037,9.5339,-0.00112,0.00205,-0.00066,0.0,42.019,0.183,0.0,11.22,-0.028,11.22,40.39,0.0
7.48,0.2834,1.3319,9.8846,-0.00458,-0.0034,-0.00399,0.0,42.131,0.182,0.0,11.235,-0.028,11.235,40.45,0.0
7.49,0.3355,1.6097,9.8973,-0.00212,0.00547,-0.00631,0.0,42.244,0.182,0.0,11.25,-0.028,11.25,40.5,0.0
7.5,-0.0706,1.6565,9.636,0.00501,-0.00068,0.0007,0.0,42.356,0.182,0.0,11.265,-0.029,11.265,40.55,0.0
7.51,0.1405,1.3252,9.5547,-0.00384,-0.00048,-0.00464,0.0,42.469,0.182,0.0,11.28,-0.029,11.28,40.61,0.0
7.52,0.0579,1.5934,8.811,-0.00307,-0.00632,-0.00018,0.0,42.582,0.181,0.0,11.295,-0.029,11.295,40.66,0.0
7.53,-0.245,1.5736,9.3893,0.00051,0.00144,-0.00236,0.0,42.695,0.181,0.0,11.31,-0.029,11.31,40.72,0.0
7.54,-0.1132,1.4433,9.409,0.00917,-0.00099,-0.00437,0.0,42.808,0.181,0.0,11.325,-0.029,11.325,40.77,0.0
7.55,-0.3407,1.196,10.0341,0.00282,0.01009,-8e-05,0.0,42.922,0.18,0.0,11.34,-0.03,11.34,40.82,0.0
7.56,-0.2207,1.6557,10.4398,0.00608,0.00117,-0.00124,0.0,43.035,0.18,0.0,11.355,-0.03,11.355,40.88,0.0
7.57,0.1466,1.4888,9.8631,0.00304,0.00134,-0.00163,0.0,43.149,0.18,0.0,11.37,-0.03,11.37,40.93,0.0
7.58,-0.2325,1.7297,9.9206,-0.00251,-0.004,0.00444,0.0,43.263,0.18,0.0,11.385,-0.03,11.385,40.99,0.0
7.59,-0.126,1.2345,9.5178,0.00385,0.0036,0.00411,0.0,43.377,0.179,0.0,11.4,-0.03,11.4,41.04,0.0
7.6,-0.2322,1.4108,9.9718,-0.00427,-0.00817,0.00409,0.0,43.491,0.179,0.0,11.415,-0.031,11.415,41.09,0.0
7.61,0.0301,1.6139,9.6374,0.00692,-0.00697,-0.00376,0.0,43.605,0.179,0.0,11.43,-0.031,11.43,41.15,0.0
7.62,0.1196,1.5386,9.346,0.00804,2e-05,-0.00216,0.0,43.72,0.178,0.0,11.445,-0.031,11.445,41.2,0.0
7.63,0.0342,1.2601,9.5492,0.00143,-0.00607,-0.00161,0.0,43.834,0.178,0.0,11.46,-0.031,11.46,41.26,0.0
7.64,0.1033,1.5828,9.4405,0.00388,0.00439,0.00939,0.0,43.949,0.178,0.0,11.475,-0.031,11.475,41.31,0.0
7.65,0.0335,1.4494,9.5582,-0.00026,0.00252,3e-05,0.0,44.064,0.177,0.0,11.49,-0.032,11.49,41.36,0.0
7.66,-0.3274,1.6014,10.1903,-0.00193,0.0047,-0.00451,0.0,44.179,0.177,0.0,11.505,-0.032,11.505,41.42,0.0
7.67,0.1106,1.7605,9.9663,0.00089,-0.00144,0.00612,0.0,44.294,0.177,0.0,11.52,-0.032,11.52,41.47,0.0
7.68,0.2467,1.3775,10.1451,0.00772,0.00403,-0.01057,0.0,44.41,0.176,0.0,11.535,-0.032,11.535,41.53,0.0
7.69,0.0978,1.6383,9.5173,-0.00631,-0.00534,0.00433,0.0,44.525,0.176,0.0,11.55,-0.032,11.55,41.58,0.0
7.7,-0.1665,1.1572,9.7771,0.00033,-0.00162,0.00145,0.0,44.641,0.176,0.0,11.565,-0.033,11.565,41.63,0.0
7.71,-0.3283,1.5553,9.0621,-0.00373,-0.00051,0.00503,0.0,44.757,0.175,0.0,11.58,-0.033,11.58,41.69,0.0
7.72,0.1937,1.6034,9.7027,-0.00113,-0.00209,0.00327,0.0,44.873,0.175,0.0,11.595,-0.033,11.595,41.74,0.0
7.73,0.0134,1.6423,9.9528,-0.00047,0.00383,0.00718,0.0,44.989,0.175,0.0,11.61,-0.033,11.61,41.8,0.0
7.74,-0.0111,1.1949,10.0686,-0.00596,0.00493,-0.0006,0.0,45.105,0.174,0.0,11.625,-0.033,11.625,41.85,0.0
7.75,0.3584,1.6557,9.5826,0.00231,0.01178,-0.0117,0.0,45.221,0.174,0.0,11.64,-0.033,11.64,41.9,0.0
7.76,0.4028,1.4151,9.7401,-0.00043,-0.0035,0.0008,0.0,45.338,0.174,0.0,11.655,-0.034,11.655,41.96,0.0
7.77,-0.1098,1.6405,9.9358,-0.0055,-0.00599,-3e-05,0.0,45.455,0.173,0.0,11.67,-0.034,11.67,42.01,0.0
7.78,-0.145,1.5047,9.7773,0.00336,-0.00276,-0.00645,0.0,45.571,0.173,0.0,11.685,-0.034,11.685,42.07,0.0
7.79,0.1802,1.4758,9.3437,-0.002,-0.00223,-0.00173,0.0,45.688,0.173,0.0,11.7,-0.034,11.7,42.12,0.0
7.8,0.0941,1.6177,9.6323,-0.00324,0.00358,0.0095,0.0,45.806,0.172,0.0,11.715,-0.034,11.715,42.17,0.0
7.81,0.2013,0.9737,9.4959,0.00185,0.00187,0.00625,0.0,45.923,0.172,0.0,11.73,-0.035,11.73,42.23,0.0
7.82,-0.1032,1.3852,9.8386,-0.00782,-0.0001,-0.00047,0.0,46.04,0.172,0.0,11.745,-0.035,11.745,42.28,0.0
7.83,0.0296,1.7587,9.508,0.0025,-0.00113,0.00737,0.0,46.158,0.171,0.0,11.76,-0.035,11.76,42.34,0.0
7.84,0.0232,1.5136,9.4892,0.00625,0.00452,0.0049,0.0,46.276,0.171,0.0,11.775,-0.035,11.775,42.39,0.0
7.85,0.0716,1.2483,9.8095,0.00187,-0.00254,-0.0036,0.0,46.394,0.171,0.0,11.79,-0.035,11.79,42.44,0.0
7.86,-0.3172,1.7192,9.7785,-0.00461,0.00286,0.00445,0.0,46.512,0.17,0.0,11.805,-0.035,11.805,42.5,0.0
7.87,-0.1102,1.9188,10.1559,0.00334,-0.00386,-0.00376,0.0,46.63,0.17,0.0,11.82,-0.036,11.82,42.55,0.0
7.88,-0.2887,1.242,10.4057,0.00019,-0.00511,0.0077,0.0,46.748,0.17,0.0,11.835,-0.036,11.835,42.61,0.0
7.89,-0.2993,1.594,9.9009,0.00089,0.00874,-0.00319,0.0,46.867,0.169,0.0,11.85,-0.036,11.85,42.66,0.0
7.9,0.1776,1.1559,9.4918,-0.00285,-0.01111,0.00254,0.0,46.985,0.169,0.0,11.865,-0.036,11.865,42.71,0.0
7.91,-0.159,1.5962,9.4836,-0.00958,0.00946,0.00515,0.0,47.104,0.168,0.0,11.88,-0.036,11.88,42.77,0.0
7.92,-0.1444,1.6118,9.7881,0.00096,0.00841,0.0085,0.0,47.223,0.168,0.0,11.895,-0.037,11.895,42.82,0.0
7.93,0.0566,1.8542,10.2426,-0.00588,0.00356,-0.00363,0.0,47.342,0.168,0.0,11.91,-0.037,11.91,42.88,0.0
7.94,0.145,1.5115,10.1857,-0.00056,-0.0009,-0.01053,0.0,47.461,0.167,0.0,11.925,-0.037,11.925,42.93,0.0
7.95,-0.157,1.9182,9.8029,0.00468,0.00235,0.00643,0.0,47.581,0.167,0.0,11.94,-0.037,11.94,42.98,0.0
7.96,0.516,1.6482,10.7353,0.00031,0.0087,0.00321,0.0,47.7,0.167,0.0,11.955,-0.037,11.955,43.04,0.0
7.97,-0.6644,1.157,9.9233,0.00271,-0.00338,-0.00672,0.0,47.82,0.166,0.0,11.97,-0.037,11.97,43.09,0.0
7.98,0.1024,1.5488,9.8094,0.00254,0.00245,0.00587,0.0,47.94,0.166,0.0,11.985,-0.038,11.985,43.15,0.0
7.99,0.216,1.487,9.6399,0.00212,0.00128,0.0051,0.0,48.06,0.166,0.0,12.0,-0.038,12.0,43.2,0.0
8.0,-0.2776,1.679,10.2265,-0.00817,-0.00244,-0.0046,0.0,48.18,0.165,0.0,12.015,-0.038,12.015,43.25,0.0
8.01,-0.2462,1.4219,9.9708,-0.00327,0.00091,-0.00197,0.0,48.3,0.165,0.0,12.03,-0.038,12.03,43.31,0.0
8.02,-0.3396,1.3983,9.7644,-0.00216,-0.01116,0.00029,0.0,48.421,0.164,0.0,12.045,-0.038,12.045,43.36,0.0
8.03,0.3881,1.4822,9.8052,-0.00387,-0.00046,-0.00449,0.0,48.541,0.164,0.0,12.06,-0.038,12.06,43.42,0.0
8.04,0.1778,1.5314,9.1886,-0.00047,0.00065,-0.00073,0.0,48.662,0.164,0.0,12.075,-0.038,12.075,43.47,0.0
8.05,-0.2435,1.6014,9.8086,-0.00054,0.0014,-0.00104,0.0,48.783,0.163,0.0,12.09,-0.039,12.09,43.52,0.0
8.06,0.1755,1.3466,9.7174,0.00147,-0.00524,-0.0046,0.0,48.904,0.163,0.0,12.105,-0.039,12.105,43.58,0.0
8.07,0.0285,1.6026,9.5826,0.00456,0.00967,-0.00546,0.0,49.025,0.162,0.0,12.12,-0.039,12.12,43.63,0.0
8.08,0.2962,1.4265,10.2227,0.00195,0.00128,0.00089,0.0,49.147,0.162,0.0,12.135,-0.039,12.135,43.69,0.0
8.09,0.0981,1.3984,9.1701,0.00013,0.00945,-0.00184,0.0,49.268,0.162,0.0,12.15,-0.039,12.15,43.74,0.0
8.1,-0.0357,1.4048,9.53,-0.00629,-0.00259,0.00081,0.0,49.39,0.161,0.0,12.165,-0.039,12.165,43.79,0.0
8.11,-0.1381,1.773,9.7924,-0.00402,-0.00203,-0.0061,0.0,49.512,0.161,0.0,12.18,-0.04,12.18,43.85,0.0
8.12,0.1834,1.4546,9.5351,-0.00826,0.00186,-0.00526,0.0,49.634,0.16,0.0,12.195,-0.04,12.195,43.9,0.0
8.13,0.0484,1.6151,9.6521,-0.00376,-0.0004,-0.00599,0.0,49.756,0.16,0.0,12.21,-0.04,12.21,43.96,0.0
8.14,0.2877,1.8624,9.8081,-0.00269,0.00319,-0.00724,0.0,49.878,0.16,0.0,12.225,-0.04,12.225,44.01,0.0
8.15,-0.0006,1.7239,9.6768,-0.00232,-0.00157,-0.00152,0.0,50.0,0.159,0.0,12.24,-0.04,12.24,44.06,0.0
8.16,0.1238,1.6757,9.1013,-0.00012,-0.01073,0.00186,0.0,50.123,0.159,0.0,12.255,-0.04,12.255,44.12,0.0
8.17,-0.091,1.5573,10.3504,-0.00054,0.00146,0.00021,0.0,50.246,0.158,0.0,12.27,-0.04,12.27,44.17,0.0
8.18,-0.1454,1.3827,9.5855,0.00195,-0.00641,0.00282,0.0,50.368,0.158,0.0,12.285,-0.041,12.285,44.23,0.0
8.19,0.052,1.6775,10.4517,-0.005,0.00563,0.0002,0.0,50.491,0.158,0.0,12.3,-0.041,12.3,44.28,0.0
8.2,0.0918,1.6661,10.9299,-0.00452,0.00053,0.01358,0.0,50.615,0.157,0.0,12.315,-0.041,12.315,44.33,0.0
8.21,-0.0883,1.6013,9.9235,0.00755,-0.0019,-0.00941,0.0,50.738,0.157,0.0,12.33,-0.041,12.33,44.39,0.0
8.22,-0.3696,1.4922,10.1227,0.00532,-0.00294,0.00265,0.0,50.861,0.156,0.0,12.345,-0.041,12.345,44.44,0.0
8.23,0.2895,1.9119,9.911,0.00346,-0.0068,0.00022,0.0,50.985,0.156,0.0,12.36,-0.041,12.36,44.5,0.0
8.24,0.3312,1.6384,9.8223,0.00106,0.00014,-0.0083,0.0,51.109,0.156,0.0,12.375,-0.041,12.375,44.55,0.0
8.25,0.3623,1.4271,9.8546,-0.00116,0.00057,-0.00538,0.0,51.233,0.155,0.0,12.39,-0.042,12.39,44.6,0.0
8.26,0.2245,1.5663,9.8364,0.00348,-0.00659,-0.00434,0.0,51.357,0.155,0.0,12.405,-0.042,12.405,44.66,0.0
8.27,0.0698,1.1379,9.6404,0.0037,0.01055,0.00485,0.0,51.481,0.154,0.0,12.42,-0.042,12.42,44.71,0.0
8.28,0.1481,1.36,10.3313,0.00521,-0.002,-0.00271,0.0,51.605,0.154,0.0,12.435,-0.042,12.435,44.77,0.0
8.29,-0.1357,1.4337,9.6827,-0.00908,0.00324,-0.00265,0.0,51.73,0.154,0.0,12.45,-0.042,12.45,44.82,0.0
8.3,0.1057,1.1621,9.4006,-0.00534,0.00349,-0.00816,0.0,51.854,0.153,0.0,12.465,-0.042,12.465,44.87,0.0
8.31,0.3632,1.3395,10.0686,0.00122,-0.00172,1e-05,0.0,51.979,0.153,0.0,12.48,-0.042,12.48,44.93,0.0
8.32,0.0565,1.4159,9.8832,-0.00205,0.00488,-0.01719,0.0,52.104,0.152,0.0,12.495,-0.043,12.495,44.98,0.0
8.33,-0.2812,1.8013,9.9161,0.00657,-0.00483,0.0128,0.0,52.229,0.152,0.0,12.51,-0.043,12.51,45.04,0.0
8.34,0.1856,1.3907,10.5217,-0.00086,-0.00059,0.00419,0.0,52.354,0.151,0.0,12.525,-0.043,12.525,45.09,0.0
8.35,0.1238,1.3314,9.852,-0.00372,-0.00222,0.00654,0.0,52.48,0.151,0.0,12.54,-0.043,12.54,45.14,0.0
8.36,0.0945,1.6717,10.1129,0.0023,-0.00627,-0.00336,0.0,52.605,0.151,0.0,12.555,-0.043,12.555,45.2,0.0
8.37,0.1448,1.5669,9.8377,-0.00338,0.00296,0.0093,0.0,52.731,0.15,0.0,12.57,-0.043,12.57,45.25,0.0
8.38,0.1402,1.4239,9.7771,-0.00117,-0.00837,-0.00038,0.0,52.857,0.15,0.0,12.585,-0.043,12.585,45.31,0.0
8.39,-0.4252,1.9749,9.8771,-0.0072,-0.0042,-0.00414,0.0,52.983,0.149,0.0,12.6,-0.043,12.6,45.36,0.0
8.4,-0.058,1.7686,9.8961,0.00091,-0.00396,-0.00321,0.0,53.109,0.149,0.0,12.615,-0.044,12.615,45.41,0.0
8.41,-0.2252,2.1045,10.2038,0.00336,-0.00533,-0.00409,0.0,53.235,0.148,0.0,12.63,-0.044,12.63,45.47,0.0
8.42,0.4104,1.4407,9.8753,0.00208,-0.00455,0.00113,0.0,53.362,0.148,0.0,12.645,-0.044,12.645,45.52,0.0
8.43,0.0189,1.6219,9.916,0.00363,-0.00368,0.00262,0.0,53.488,0.147,0.0,12.66,-0.044,12.66,45.58,0.0
8.44,0.1123,1.4132,9.7735,0.00678,-0.01249,-0.00046,0.0,53.615,0.147,0.0,12.675,-0.044,12.675,45.63,0.0
8.45,0.3198,1.2399,9.9609,0.00175,0.00297,-0.00057,0.0,53.742,0.147,0.0,12.69,-0.044,12.69,45.68,0.0
8.46,-0.3081,1.2113,9.9719,0.00039,-0.00188,0.00472,0.0,53.869,0.146,0.0,12.705,-0.044,12.705,45.74,0.0
8.47,-0.1782,1.0755,9.8766,-0.00397,-0.00624,-0.00704,0.0,53.996,0.146,0.0,12.72,-0.044,12.72,45.79,0.0
8.48,-0.0174,1.58,9.5705,-0.0002,-0.00248,0.00171,0.0,54.124,0.145,0.0,12.735,-0.045,12.735,45.85,0.0
8.49,-0.2232,1.4571,10.1058,-0.00338,0.00178,-0.00665,0.0,54.251,0.145,0.0,12.75,-0.045,12.75,45.9,0.0
8.5,0.5017,1.7596,10.1572,-0.00121,-0.00092,-0.00433,0.0,54.379,0.144,0.0,12.765,-0.045,12.765,45.95,0.0
8.51,0.3449,1.7397,9.7403,0.00146,0.00147,0.00835,0.0,54.507,0.144,0.0,12.78,-0.045,12.78,46.01,0.0
8.52,0.1448,1.2949,9.544,0.001,-0.00549,0.0008,0.0,54.635,0.143,0.0,12.795,-0.045,12.795,46.06,0.0
8.53,-0.0641,1.7081,9.8213,-0.0057,0.00039,-0.00305,0.0,54.763,0.143,0.0,12.81,-0.045,12.81,46.12,0.0
8.54,-0.1107,1.0804,9.5511,-0.00134,0.00541,-0.00044,0.0,54.891,0.143,0.0,12.825,-0.045,12.825,46.17,0.0
8.55,-0.0519,1.4002,9.8992,-0.0035,-0.00054,-0.00024,0.0,55.019,0.142,0.0,12.84,-0.045,12.84,46.22,0.0
8.56,-0.3084,1.1555,9.9951,-0.0006,-0.00211,0.003,0.0,55.148,0.142,0.0,12.855,-0.045,12.855,46.28,0.0
8.57,0.092,1.3206,10.4944,0.0005,0.01255,-0.00367,0.0,55.277,0.141,0.0,12.87,-0.046,12.87,46.33,0.0
8.58,-0.0754,1.5323,9.6213,-0.00185,0.00196,-0.00129,0.0,55.405,0.141,0.0,12.885,-0.046,12.885,46.39,0.0
8.59,-0.2316,1.7361,9.5724,0.00705,0.00244,0.00252,0.0,55.534,0.14,0.0,12.9,-0.046,12.9,46.44,0.0
8.6,0.2775,1.8949,9.3899,0.00349,-0.00151,-0.00238,0.0,55.664,0.14,0.0,12.915,-0.046,12.915,46.49,0.0
8.61,0.0397,1.6526,9.9546,-0.0042,-0.00815,-0.00473,0.0,55.793,0.139,0.0,12.93,-0.046,12.93,46.55,0.0
8.62,-0.1599,1.2765,10.1423,-0.00016,-0.00297,0.00059,0.0,55.922,0.139,0.0,12.945,-0.046,12.945,46.6,0.0
8.63,0.2005,1.3677,9.7841,0.00517,-0.00154,0.00778,0.0,56.052,0.138,0.0,12.96,-0.046,12.96,46.66,0.0
8.64,0.5133,1.7045,9.8379,-0.00579,0.00785,-0.00528,0.0,56.182,0.138,0.0,12.975,-0.046,12.975,46.71,0.0
8.65,-0.496,1.5566,9.2697,-0.00299,-0.00331,-0.00757,0.0,56.312,0.138,0.0,12.99,-0.046,12.99,46.76,0.0
8.66,-0.2393,1.2599,9.8728,0.00083,0.00254,-0.00673,0.0,56.442,0.137,0.0,13.005,-0.046,13.005,46.82,0.0
8.67,-0.2737,1.105,9.5612,0.00512,0.00596,-0.00606,0.0,56.572,0.137,0.0,13.02,-0.046,13.02,46.87,0.0
8.68,-0.0056,1.3822,9.2379,-0.01202,-0.00626,0.01785,0.0,56.702,0.136,0.0,13.035,-0.047,13.035,46.93,0.0
8.69,-0.2798,1.6232,9.4457,0.0029,-0.01093,-0.00172,0.0,56.833,0.136,0.0,13.05,-0.047,13.05,46.98,0.0
8.7,0.0392,1.6144,10.0173,-0.00499,-0.00243,0.00555,0.0,56.963,0.135,0.0,13.065,-0.047,13.065,47.03,0.0
8.71,0.2258,1.5305,10.7822,-0.00473,0.00454,0.00439,0.0,57.094,0.135,0.0,13.08,-0.047,13.08,47.09,0.0
8.72,-0.4253,1.6466,10.0706,-0.00501,-0.00015,0.00751,0.0,57.225,0.134,0.0,13.095,-0.047,13.095,47.14,0.0
8.73,-0.1587,1.518,9.9759,0.00378,-0.00392,0.00441,0.0,57.356,0.134,0.0,13.11,-0.047,13.11,47.2,0.0
8.74,-0.006,1.8203,10.2238,-0.00335,-0.00051,0.00743,0.0,57.487,0.133,0.0,13.125,-0.047,13.125,47.25,0.0
8.75,-0.0199,1.7418,9.5707,-0.00155,-0.00014,-0.00464,0.0,57.619,0.133,0.0,13.14,-0.047,13.14,47.3,0.0
8.76,0.0213,1.3587,9.9326,-0.00082,-0.00373,0.00246,0.0,57.75,0.132,0.0,13.155,-0.047,13.155,47.36,0.0
8.77,0.2059,1.7642,9.3466,-0.00316,0.00987,-0.00179,0.0,57.882,0.132,0.0,13.17,-0.047,13.17,47.41,0.0
8.78,0.1921,1.5332,10.1896,0.00168,-0.00145,-0.00442,0.0,58.014,0.131,0.0,13.185,-0.047,13.185,47.47,0.0
8.79,-0.111,1.5312,9.7474,-0.00655,0.00183,-0.00676,0.0,58.146,0.131,0.0,13.2,-0.048,13.2,47.52,0.0
8.8,0.102,1.432,9.7938,-0.0038,0.00393,0.00246,0.0,58.278,0.13,0.0,13.215,-0.048,13.215,47.57,0.0
8.81,0.1254,1.3404,10.1516,-0.00039,0.00457,-0.00135,0.0,58.41,0.13,0.0,13.23,-0.048,13.23,47.63,0.0
8.82,-0.0142,1.4121,9.8521,0.00618,0.01552,0.00266,0.0,58.543,0.13,0.0,13.245,-0.048,13.245,47.68,0.0
8.83,-0.0942,1.4893,9.2848,-0.00462,0.00178,0.00138,0.0,58.676,0.129,0.0,13.26,-0.048,13.26,47.74,0.0
8.84,-0.1388,0.8926,9.7062,0.00395,-0.00493,0.00611,0.0,58.808,0.129,0.0,13.275,-0.048,13.275,47.79,0.0
8.85,0.0214,1.4767,10.0405,-0.00224,0.00126,0.00247,0.0,58.941,0.128,0.0,13.29,-0.048,13.29,47.84,0.0
8.86,0.0046,1.3894,9.5851,-0.00387,-0.00139,0.00469,0.0,59.074,0.128,0.0,13.305,-0.048,13.305,47.9,0.0
8.87,-0.1201,2.0743,9.2884,-0.00039,-0.00566,-0.0012,0.0,59.207,0.127,0.0,13.32,-0.048,13.32,47.95,0.0
8.88,0.1305,1.6039,10.1975,0.00527,0.00421,-0.00462,0.0,59.341,0.127,0.0,13.335,-0.048,13.335,48.01,0.0
8.89,0.303,1.7398,10.1855,0.00379,0.00313,-5e-05,0.0,59.474,0.126,0.0,13.35,-0.048,13.35,48.06,0.0
8.9,-0.624,1.5679,10.4182,-0.00932,0.00055,-0.00133,0.0,59.608,0.126,0.0,13.365,-0.048,13.365,48.11,0.0
8.91,-0.2643,1.4884,9.6169,0.0037,0.0031,0.00268,0.0,59.742,0.125,0.0,13.38,-0.048,13.38,48.17,0.0
8.92,-0.2199,1.3368,9.7555,-0.00701,0.00357,0.00463,0.0,59.876,0.125,0.0,13.395,-0.048,13.395,48.22,0.0
8.93,-0.1102,1.7869,9.8583,-0.00472,0.00526,0.00061,0.0,60.01,0.124,0.0,13.41,-0.048,13.41,48.28,0.0
8.94,-0.0846,1.2845,10.4863,-0.00126,-0.00193,-0.00291,0.0,60.144,0.124,0.0,13.425,-0.049,13.425,48.33,0.0
8.95,0.3501,1.8601,10.229,-0.00068,-0.0031,0.00126,0.0,60.278,0.123,0.0,13.44,-0.049,13.44,48.38,0.0
8.96,-0.2906,1.3084,10.0614,0.00458,0.01225,0.00434,0.0,60.413,0.123,0.0,13.455,-0.049,13.455,48.44,0.0
8.97,0.3192,1.6635,9.6618,0.00558,-0.00782,-0.00327,0.0,60.548,0.122,0.0,13.47,-0.049,13.47,48.49,0.0
8.98,0.1408,2.1066,10.3593,0.00066,-0.00972,0.00048,0.0,60.683,0.122,0.0,13.485,-0.049,13.485,48.55,0.0
8.99,0.0008,1.1875,9.2811,-0.00304,-0.00396,-0.00444,0.0,60.818,0.121,0.0,13.5,-0.049,13.5,48.6,0.0
9.001,-0.1613,1.5768,9.6958,0.00733,0.00484,-0.00235,0.0,60.953,0.121,0.0,13.515,-0.049,13.515,48.65,0.0
9.011,-0.2566,1.5009,9.6926,0.00134,-0.00088,-0.00622,0.0,61.088,0.12,0.0,13.53,-0.049,13.53,48.71,0.0
9.021,-0.0353,1.4426,9.978,-0.00177,0.00291,0.0031,0.0,61.223,0.12,0.0,13.545,-0.049,13.545,48.76,0.0
9.031,0.3903,1.5573,10.0447,-0.004,0.00838,-0.00972,0.0,61.359,0.119,0.0,13.56,-0.049,13.56,48.82,0.0
9.041,0.1628,1.8263,9.1638,0.00358,-0.00834,0.00606,0.0,61.495,0.119,0.0,13.575,-0.049,13.575,48.87,0.0
9.051,0.1369,1.47,10.136,-0.00193,0.00077,0.00073,0.0,61.631,0.118,0.0,13.59,-0.049,13.59,48.92,0.0
9.061,0.4434,1.275,9.6585,-0.0028,-0.00433,0.00154,0.0,61.767,0.118,0.0,13.605,-0.049,13.605,48.98,0.0
9.071,-0.1935,1.4883,10.0546,0.00488,-0.00423,0.00024,0.0,61.903,0.117,0.0,13.62,-0.049,13.62,49.03,0.0
9.081,0.0711,1.8174,10.1793,-0.00902,-0.00713,-0.00814,0.0,62.039,0.117,0.0,13.635,-0.049,13.635,49.09,0.0
9.091,0.6477,1.2976,9.6218,-0.00595,-0.00611,-0.0068,0.0,62.176,0.116,0.0,13.65,-0.049,13.65,49.14,0.0
9.101,-0.184,1.0961,9.4736,-0.00301,-0.0041,0.00036,0.0,62.312,0.116,0.0,13.665,-0.049,13.665,49.19,0.0
9.111,-0.2119,1.4123,10.1256,0.002,-0.00456,-0.00079,0.0,62.449,0.115,0.0,13.68,-0.049,13.68,49.25,0.0
9.121,0.0597,1.5786,10.0263,0.0067,0.001,-0.00154,0.0,62.586,0.115,0.0,13.695,-0.049,13.695,49.3,0.0
9.131,-0.4738,1.9047,9.0015,-0.00769,0.00215,0.00393,0.0,62.723,0.114,0.0,13.71,-0.049,13.71,49.36,0.0
9.141,-0.122,1.3395,9.8696,0.00257,-0.00304,0.00052,0.0,62.861,0.114,0.0,13.725,-0.049,13.725,49.41,0.0
9.151,-0.2416,1.2317,9.8253,0.00435,0.00266,-0.00093,0.0,62.998,0.113,0.0,13.74,-0.05,13.74,49.46,0.0
9.161,0.2302,1.8627,9.7467,-0.00813,0.00016,-0.00756,0.0,63.135,0.113,0.0,13.755,-0.05,13.755,49.52,0.0
9.171,0.0344,1.7239,10.0936,-0.00223,-0.00027,-0.00663,0.0,63.273,0.112,0.0,13.77,-0.05,13.77,49.57,0.0
9.181,0.1211,1.4012,9.8269,0.00237,0.00028,-0.00272,0.0,63.411,0.112,0.0,13.785,-0.05,13.785,49.63,0.0
9.191,0.0263,1.7438,9.9307,-0.00158,-0.00036,-0.00015,0.0,63.549,0.111,0.0,13.8,-0.05,13.8,49.68,0.0
9.201,-0.269,1.751,10.4868,-0.00413,0.00133,-0.00692,0.0,63.687,0.111,0.0,13.815,-0.05,13.815,49.73,0.0
9.211,0.4141,1.4407,8.8401,-0.01182,0.00794,0.00096,0.0,63.825,0.11,0.0,13.83,-0.05,13.83,49.79,0.0
9.221,-0.0073,1.4726,9.4541,0.0016,0.01084,0.00606,0.0,63.964,0.11,0.0,13.845,-0.05,13.845,49.84,0.0
9.231,0.187,1.5778,10.054,0.00602,0.00103,-0.00106,0.0,64.103,0.109,0.0,13.86,-0.05,13.86,49.9,0.0
9.241,-0.1717,1.8428,9.3665,-0.00355,0.0044,0.00151,0.0,64.241,0.109,0.0,13.875,-0.05,13.875,49.95,0.0
9.251,0.2482,1.4037,9.2548,-0.004,0.00529,0.00972,0.0,64.38,0.108,0.0,13.89,-0.05,13.89,50.0,0.0
9.261,-0.013,1.2592,10.1391,-0.00775,0.00347,-0.00499,0.0,64.519,0.108,0.0,13.905,-0.05,13.905,50.06,0.0
9.271,-0.3525,1.1582,10.1296,0.00272,0.00694,-0.00054,0.0,64.658,0.107,0.0,13.92,-0.05,13.92,50.11,0.0
9.281,-0.0329,1.5941,9.9165,-0.0064,0.00127,-0.0026,0.0,64.798,0.107,0.0,13.935,-0.05,13.935,50.17,0.0
9.291,0.0312,1.3451,10.0946,-2e-05,-0.0001,-0.00628,0.0,64.937,0.106,0.0,13.95,-0.05,13.95,50.22,0.0
9.301,-0.4499,1.1182,10.1745,0.00835,0.01011,0.00333,0.0,65.077,0.106,0.0,13.965,-0.05,13.965,50.27,0.0
9.311,0.4999,1.644,9.3249,-0.00089,0.00339,-0.00087,0.0,65.217,0.105,0.0,13.98,-0.05,13.98,50.33,0.0
9.321,-0.323,1.4367,9.5482,0.00038,0.00586,-0.00139,0.0,65.357,0.105,0.0,13.995,-0.05,13.995,50.38,0.0
9.331,-0.3452,1.6687,9.6797,0.0006,-0.00035,0.00774,0.0,65.497,0.104,0.0,14.01,-0.05,14.01,50.44,0.0
9.341,0.2321,1.5225,9.7625,-0.00078,-0.00152,-0.00795,0.0,65.637,0.104,0.0,14.025,-0.05,14.025,50.49,0.0
9.351,0.1995,1.3253,9.7165,-0.00575,0.00237,-0.00323,0.0,65.777,0.103,0.0,14.04,-0.05,14.04,50.54,0.0
9.361,0.0327,1.5915,10.1933,0.00234,-0.00472,0.00449,0.0,65.918,0.103,0.0,14.055,-0.05,14.055,50.6,0.0
9.371,-0.1398,1.4784,8.7505,-0.00525,0.00381,0.00153,0.0,66.059,0.102,0.0,14.07,-0.05,14.07,50.65,0.0
9.381,-0.1161,1.3296,9.9319,-0.0039,-0.00024,0.01021,0.0,66.2,0.102,0.0,14.085,-0.05,14.085,50.71,0.0
9.391,0.1353,1.7295,10.4142,0.00075,0.00197,-0.00372,0.0,66.341,0.101,0.0,14.1,-0.05,14.1,50.76,0.0
9.401,0.2811,1.3421,9.9313,-0.00963,-0.00237,0.00506,0.0,66.482,0.101,0.0,14.115,-0.05,14.115,50.81,0.0
9.411,-0.2289,1.1744,9.2817,0.00973,-0.00077,-0.00212,0.0,66.623,0.1,0.0,14.13,-0.05,14.13,50.87,0.0
9.421,0.4016,1.1004,9.8547,-0.00451,0.0033,0.00248,0.0,66.764,0.1,0.0,14.145,-0.05,14.145,50.92,0.0
9.431,0.1009,1.302,9.6349,0.00135,-0.00527,-0.00078,0.0,66.906,0.099,0.0,14.16,-0.05,14.16,50.98,0.0
9.441,0.0236,1.5782,9.5242,0.00154,0.0004,-0.00249,0.0,67.048,0.099,0.0,14.175,-0.05,14.175,51.03,0.0
9.451,-0.1267,1.5913,10.0202,0.00382,-0.00716,-0.00285,0.0,67.19,0.098,0.0,14.19,-0.05,14.19,51.08,0.0
9.461,0.0558,1.4452,9.7648,0.0006,0.00126,-0.00389,0.0,67.332,0.098,0.0,14.205,-0.05,14.205,51.14,0.0
9.471,0.4884,1.3179,10.3212,-0.00917,-0.01149,0.00529,0.0,67.474,0.097,0.0,14.22,-0.05,14.22,51.19,0.0
9.481,0.2931,1.411,9.3494,-0.00335,0.00209,0.00525,0.0,67.616,0.097,0.0,14.235,-0.05,14.235,51.25,0.0
9.491,0.1285,1.494,9.8993,0.00173,-0.00066,0.00092,0.0,67.759,0.096,0.0,14.25,-0.05,14.25,51.3,0.0
9.501,0.1033,1.4683,10.0578,0.00336,-0.00568,0.00124,0.0,67.901,0.096,0.0,14.265,-0.05,14.265,51.35,0.0
9.511,-0.1777,1.205,9.5221,-0.00076,0.00175,-0.00503,0.0,68.044,0.095,0.0,14.28,-0.05,14.28,51.41,0.0
9.521,0.1597,1.6256,10.0004,0.00226,0.00351,0.00038,0.0,68.187,0.095,0.0,14.295,-0.05,14.295,51.46,0.0
9.531,0.4045,1.2318,10.3819,0.00073,-0.00484,-0.00367,0.0,68.33,0.094,0.0,14.31,-0.05,14.31,51.52,0.0
9.541,-0.2162,1.738,9.9646,0.00822,-0.00151,0.00474,0.0,68.474,0.094,0.0,14.325,-0.05,14.325,51.57,0.0
9.551,0.0008,1.5183,10.3127,0.00617,0.00967,0.00717,0.0,68.617,0.093,0.0,14.34,-0.05,14.34,51.62,0.0
9.561,0.107,1.9273,9.3555,0.00418,0.00335,-0.00601,0.0,68.76,0.093,0.0,14.355,-0.05,14.355,51.68,0.0
9.571,-0.183,1.177,10.4977,0.01162,0.00635,0.00043,0.0,68.904,0.092,0.0,14.37,-0.05,14.37,51.73,0.0
9.581,0.0138,1.0927,9.7671,0.01028,0.00555,-0.00306,0.0,69.048,0.092,0.0,14.385,-0.05,14.385,51.79,0.0
9.591,0.3828,1.4711,9.7759,-0.00381,-0.00436,-0.00886,0.0,69.192,0.091,0.0,14.4,-0.05,14.4,51.84,0.0
9.601,-0.1244,1.2291,9.2305,-0.00201,0.00378,0.0049,0.0,69.336,0.091,0.0,14.415,-0.05,14.415,51.89,0.0
9.611,0.0913,1.2743,9.4701,-0.00256,-0.01007,0.00044,0.0,69.48,0.09,0.0,14.43,-0.05,14.43,51.95,0.0
9.621,-0.3381,1.5232,9.4946,0.01276,0.00333,-0.00411,0.0,69.625,0.09,0.0,14.445,-0.05,14.445,52.0,0.0
9.631,-0.0238,1.1749,9.4305,-0.00288,-0.00165,0.00356,0.0,69.77,0.089,0.0,14.46,-0.05,14.46,52.06,0.0
9.641,0.507,1.8346,9.3909,-0.00218,0.00788,0.00607,0.0,69.914,0.089,0.0,14.475,-0.05,14.475,52.11,0.0
9.651,-0.0963,1.7157,10.0475,0.00302,0.00512,-0.00512,0.0,70.059,0.088,0.0,14.49,-0.05,14.49,52.16,0.0
9.661,-0.1159,1.0898,9.04,-0.01054,-0.00086,0.00426,0.0,70.204,0.088,0.0,14.505,-0.05,14.505,52.22,0.0
9.671,0.1128,1.3607,9.5259,-0.00307,-0.00245,-0.00149,0.0,70.349,0.087,0.0,14.52,-0.05,14.52,52.27,0.0
9.681,-0.0658,1.3726,9.5677,0.00432,0.00111,-0.00262,0.0,70.495,0.087,0.0,14.535,-0.05,14.535,52.33,0.0
9.691,0.0144,1.5738,10.0575,-0.00047,-0.0003,-0.00124,0.0,70.64,0.086,0.0,14.55,-0.05,14.55,52.38,0.0
9.701,0.2864,1.3894,10.0051,0.00616,-0.00038,-0.00106,0.0,70.786,0.086,0.0,14.565,-0.05,14.565,52.43,0.0
9.711,0.161,1.4576,9.906,-0.00336,0.00658,-0.00348,0.0,70.932,0.086,0.0,14.58,-0.049,14.58,52.49,0.0
9.721,-0.0137,1.2435,10.7852,0.00061,-0.00047,0.00374,0.0,71.078,0.085,0.0,14.595,-0.049,14.595,52.54,0.0
9.731,0.1187,1.6024,9.532,-0.00401,-0.00067,-0.00767,0.0,71.224,0.085,0.0,14.61,-0.049,14.61,52.6,0.0
9.741,-0.298,1.8134,9.8578,0.00243,0.00113,-0.00115,0.0,71.37,0.084,0.0,14.625,-0.049,14.625,52.65,0.0
9.751,0.1354,1.6354,9.5381,-0.00094,0.00607,-0.00399,0.0,71.516,0.084,0.0,14.64,-0.049,14.64,52.7,0.0
9.761,-0.4312,1.6018,9.3614,0.00623,-0.00702,-0.00092,0.0,71.663,0.083,0.0,14.655,-0.049,14.655,52.76,0.0
9.771,0.1213,1.2796,9.5643,0.00812,0.00572,0.00202,0.0,71.81,0.083,0.0,14.67,-0.049,14.67,52.81,0.0
9.781,-0.0462,1.2784,9.7137,0.00021,-0.00363,0.00954,0.0,71.957,0.082,0.0,14.685,-0.049,14.685,52.87,0.0
9.791,0.3376,1.5678,10.2006,-0.00514,-0.00683,0.00303,0.0,72.104,0.082,0.0,14.7,-0.049,14.7,52.92,0.0
9.801,0.3194,1.9724,10.3014,-0.00023,0.00333,-0.00491,0.0,72.251,0.081,0.0,14.715,-0.049,14.715,52.97,0.0
9.811,0.0022,1.4281,10.2477,0.00165,-0.00753,-0.01291,0.0,72.398,0.081,0.0,14.73,-0.049,14.73,53.03,0.0
9.821,0.3441,1.4858,9.4445,-0.00618,0.00921,0.00484,0.0,72.545,0.08,0.0,14.745,-0.049,14.745,53.08,0.0
9.831,0.0348,1.5077,9.9299,-0.00219,-0.00622,-0.00105,0.0,72.693,0.08,0.0,14.76,-0.049,14.76,53.14,0.0
9.841,-0.3057,1.0712,9.876,0.00712,0.00101,-0.00092,0.0,72.841,0.079,0.0,14.775,-0.049,14.775,53.19,0.0
9.851,0.1682,1.4559,9.6895,0.00169,-0.00195,0.00967,0.0,72.989,0.079,0.0,14.79,-0.049,14.79,53.24,0.0
9.861,0.0052,1.5314,10.3684,-0.00288,-0.0006,-0.00353,0.0,73.137,0.078,0.0,14.805,-0.049,14.805,53.3,0.0
9.871,-0.1358,1.4936,9.8481,0.00765,0.00767,-0.00178,0.0,73.285,0.078,0.0,14.82,-0.049,14.82,53.35,0.0
9.881,-0.0807,1.4439,9.9505,-0.00357,0.00764,-0.00776,0.0,73.433,0.077,0.0,14.835,-0.049,14.835,53.41,0.0
9.891,0.0938,1.455,9.8721,0.00572,-3e-05,0.005,0.0,73.582,0.077,0.0,14.85,-0.049,14.85,53.46,0.0
9.901,0.0588,1.6512,9.6254,0.0051,-0.00185,-0.00505,0.0,73.73,0.076,0.0,14.865,-0.049,14.865,53.51,0.0
9.911,0.2208,1.2373,10.2572,-0.00823,0.00131,0.00069,0.0,73.879,0.076,0.0,14.88,-0.049,14.88,53.57,0.0
9.921,-0.5715,1.6871,10.2224,0.00396,0.00336,-0.00082,0.0,74.028,0.075,0.0,14.895,-0.048,14.895,53.62,0.0
9.931,-0.2436,1.6595,9.6059,-0.00586,0.00247,0.00031,0.0,74.177,0.075,0.0,14.91,-0.048,14.91,53.68,0.0
9.941,0.0747,1.6133,9.8114,-0.00298,0.00815,-0.00623,0.0,74.327,0.074,0.0,14.925,-0.048,14.925,53.73,0.0
9.951,-0.0613,1.2153,9.4882,-0.00035,-0.00746,-0.0077,0.0,74.476,0.074,0.0,14.94,-0.048,14.94,53.78,0.0
9.961,-0.4561,1.6922,10.3139,0.00407,0.00254,0.00293,0.0,74.625,0.073,0.0,14.955,-0.048,14.955,53.84,0.0
9.971,-0.1412,1.7412,10.0098,-0.00267,-0.00817,0.00631,0.0,74.775,0.073,0.0,14.97,-0.048,14.97,53.89,0.0
9.981,0.3767,1.7906,10.0733,0.00391,-0.00446,0.00553,0.0,74.925,0.072,0.0,14.985,-0.048,14.985,53.95,0.0
9.991,-0.177,1.4291,9.8185,0.00525,-0.00867,0.0061,0.0,75.075,0.072,0.0,15.0,-0.048,15.0,54.0,0.0
10.001,0.2486,-0.2097,9.5223,0.00027,0.00469,-0.00444,0.0,75.225,0.071,0.0,15.0,-0.048,15.0,54.0,0.0
10.011,0.016,-0.1217,9.2044,-0.01112,0.0052,0.00653,0.0,75.375,0.071,0.0,15.0,-0.048,15.0,54.0,0.0
10.021,-0.3094,-0.1676,9.7275,0.00333,0.00455,0.00904,0.0,75.525,0.07,0.0,15.0,-0.048,15.0,54.0,0.0
10.031,-0.5346,-0.1338,9.8014,6e-05,0.00077,-0.00413,0.0,75.675,0.07,0.0,15.0,-0.048,15.0,54.0,0.0
10.041,0.2704,0.0428,10.1821,-0.00575,0.0002,-0.0014,0.0,75.825,0.069,0.0,15.0,-0.048,15.0,54.0,0.0
10.051,0.5131,-0.1238,9.1795,0.0015,0.00452,0.00748,0.0,75.975,0.069,0.0,15.0,-0.048,15.0,54.0,0.0
10.061,0.0034,-0.2107,9.349,-0.00132,-0.00626,-0.00324,0.0,76.125,0.069,0.0,15.0,-0.047,15.0,54.0,0.0
10.071,0.2927,0.1183,10.1965,0.00141,-0.00757,0.00777,0.0,76.275,0.068,0.0,15.0,-0.047,15.0,54.0,0.0
10.081,0.4461,0.1033,9.6934,-0.00198,-0.0071,-0.00783,0.0,76.425,0.068,0.0,15.0,-0.047,15.0,54.0,0.0
10.091,0.1454,0.2979,9.9385,-0.00132,0.00559,0.00837,0.0,76.575,0.067,0.0,15.0,-0.047,15.0,54.0,0.0
10.101,-0.1461,-0.3472,9.9323,-0.0021,-0.00309,4e-05,0.0,76.725,0.067,0.0,15.0,-0.047,15.0,54.0,0.0
10.111,-0.1521,0.1703,9.2272,0.00033,-0.00059,0.00944,0.0,76.875,0.066,0.0,15.0,-0.047,15.0,54.0,0.0
10.121,-0.2373,-0.098,9.7833,-0.00592,0.00453,-0.00098,0.0,77.025,0.066,0.0,15.0,-0.047,15.0,54.0,0.0
10.131,-0.2939,0.3846,9.0203,-0.00249,-0.00833,0.00052,0.0,77.175,0.065,0.0,15.0,-0.047,15.0,54.0,0.0
10.141,-0.2547,0.087,9.7944,0.0009,-0.00406,-0.00104,0.0,77.325,0.065,0.0,15.0,-0.047,15.0,54.0,0.0
10.151,0.0686,0.3699,9.7461,0.01086,-0.00315,-0.00245,0.0,77.475,0.064,0.0,15.0,-0.047,15.0,54.0,0.0
10.161,0.268,0.0008,9.1621,0.00706,-0.00141,-0.00399,0.0,77.625,0.064,0.0,15.0,-0.047,15.0,54.0,0.0
10.171,0.0715,-0.0311,9.8538,-0.00891,-0.00153,-0.00533,0.0,77.775,0.063,0.0,15.0,-0.047,15.0,54.0,0.0
10.181,0.0103,-0.2412,9.9061,-0.00773,-0.00375,-0.00156,0.0,77.925,0.063,0.0,15.0,-0.046,15.0,54.0,0.0
10.191,-0.2911,0.2801,10.0652,-0.00407,-0.00242,0.00254,0.0,78.075,0.062,0.0,15.0,-0.046,15.0,54.0,0.0
10.201,0.3168,0.0225,9.5,0.00765,-0.0022,-0.00121,0.0,78.225,0.062,0.0,15.0,-0.046,15.0,54.0,0.0
10.211,0.0745,0.0208,10.0622,-0.00343,0.0048,0.00219,0.0,78.375,0.061,0.0,15.0,-0.046,15.0,54.0,0.0
10.221,0.2424,-0.1325,10.324,-0.00677,-0.00758,0.00278,0.0,78.525,0.061,0.0,15.0,-0.046,15.0,54.0,0.0
10.231,-0.3546,-0.0124,9.4999,-0.00759,0.00465,0.01096,0.0,78.675,0.061,0.0,15.0,-0.046,15.0,54.0,0.0
10.241,-0.1709,-0.2104,10.1589,-0.00683,0.00135,0.00564,0.0,78.825,0.06,0.0,15.0,-0.046,15.0,54.0,0.0
10.251,-0.0524,0.2583,10.3895,-0.005,0.00264,0.00778,0.0,78.975,0.06,0.0,15.0,-0.046,15.0,54.0,0.0
10.261,0.1979,0.4772,9.6632,-0.00379,-0.00478,0.00749,0.0,79.125,0.059,0.0,15.0,-0.046,15.0,54.0,0.0
10.271,0.0048,-0.0221,9.0601,-0.00297,-0.00659,-0.00384,0.0,79.275,0.059,0.0,15.0,-0.046,15.0,54.0,0.0
10.281,0.2249,-0.0108,10.0887,0.00642,-0.00144,-0.00526,0.0,79.425,0.058,0.0,15.0,-0.045,15.0,54.0,0.0
10.291,0.485,-0.3256,9.8642,0.00392,-0.00789,0.00094,0.0,79.575,0.058,0.0,15.0,-0.045,15.0,54.0,0.0
10.301,-0.1838,0.2982,10.1706,-0.0043,-0.01264,-0.00408,0.0,79.725,0.057,0.0,15.0,-0.045,15.0,54.0,0.0
10.311,-0.0057,0.2031,9.6729,-0.00328,-0.00715,0.00848,0.0,79.875,0.057,0.0,15.0,-0.045,15.0,54.0,0.0
10.321,0.1311,-0.2119,9.4132,0.00171,-0.00216,0.00547,0.0,80.025,0.056,0.0,15.0,-0.045,15.0,54.0,0.0
10.331,-0.0925,0.1796,9.3874,-0.0007,0.00576,-0.0098,0.0,80.175,0.056,0.0,15.0,-0.045,15.0,54.0,0.0
10.341,0.2357,0.2128,9.279,-0.00149,0.00463,0.00242,0.0,80.325,0.056,0.0,15.0,-0.045,15.0,54.0,0.0
10.351,0.199,0.0742,9.6539,0.01067,0.00139,0.00603,0.0,80.475,0.055,0.0,15.0,-0.045,15.0,54.0,0.0
10.361,0.136,0.126,9.6291,-0.00661,-0.00452,0.00053,0.0,80.625,0.055,0.0,15.0,-0.045,15.0,54.0,0.0
10.371,-0.1237,0.1518,9.5978,-0.00442,-0.00371,0.00167,0.0,80.775,0.054,0.0,15.0,-0.045,15.0,54.0,0.0
10.381,-0.3469,0.0453,9.0976,0.00034,-0.00191,-0.00082,0.0,80.925,0.054,0.0,15.0,-0.044,15.0,54.0,0.0
10.391,0.1875,0.1679,9.196,-0.00629,-0.00052,0.0026,0.0,81.075,0.053,0.0,15.0,-0.044,15.0,54.0,0.0
10.401,0.4499,0.2424,9.9406,0.00373,0.0076,0.00065,0.0,81.225,0.053,0.0,15.0,-0.044,15.0,54.0,0.0
10.411,0.169,-0.2222,9.5651,0.00185,-0.00262,0.00692,0.0,81.375,0.052,0.0,15.0,-0.044,15.0,54.0,0.0
10.421,-0.2176,-0.4063,9.6522,0.00234,0.0015,0.00239,0.0,81.525,0.052,0.0,15.0,-0.044,15.0,54.0,0.0
10.431,0.4455,0.0114,9.5364,-0.00016,-0.01654,0.00117,0.0,81.675,0.052,0.0,15.0,-0.044,15.0,54.0,0.0
10.441,0.0044,-0.0463,9.9322,0.00432,-0.00539,-0.00054,0.0,81.825,0.051,0.0,15.0,-0.044,15.0,54.0,0.0
10.451,-0.3337,0.2732,10.0509,0.00046,0.00493,-0.00138,0.0,81.975,0.051,0.0,15.0,-0.044,15.0,54.0,0.0
10.461,0.0541,-0.2643,9.4689,-0.00554,-0.00169,0.00193,0.0,82.125,0.05,0.0,15.0,-0.043,15.0,54.0,0.0
10.471,0.0815,0.2899,9.6978,-0.00343,0.0028,-0.00372,0.0,82.275,0.05,0.0,15.0,-0.043,15.0,54.0,0.0
10.481,0.3876,-0.0024,9.8117,-0.00611,0.00495,0.00401,0.0,82.425,0.049,0.0,15.0,-0.043,15.0,54.0,0.0
10.491,-0.1645,0.2511,9.8826,0.00599,0.00526,-0.00285,0.0,82.575,0.049,0.0,15.0,-0.043,15.0,54.0,0.0
10.501,0.3712,-0.3448,9.5018,-0.00086,0.00081,0.00877,0.0,82.725,0.049,0.0,15.0,-0.043,15.0,54.0,0.0
10.511,-0.0909,-0.0684,9.8319,0.00397,0.00178,-0.00066,0.0,82.875,0.048,0.0,15.0,-0.043,15.0,54.0,0.0
10.521,-0.1638,0.1795,9.6571,0.00146,0.00037,-0.0111,0.0,83.025,0.048,0.0,15.0,-0.043,15.0,54.0,0.0
10.531,-0.0054,-0.0047,9.9069,0.00956,-0.00112,-0.00025,0.0,83.175,0.047,0.0,15.0,-0.043,15.0,54.0,0.0
10.541,0.061,-0.0257,9.9582,-0.00259,0.00403,-0.00406,0.0,83.325,0.047,0.0,15.0,-0.042,15.0,54.0,0.0
10.551,-0.1958,-0.0094,9.0172,-0.00356,-0.00678,-0.00722,0.0,83.475,0.046,0.0,15.0,-0.042,15.0,54.0,0.0
10.561,-0.2272,-0.1328,10.109,0.00076,0.0113,0.00151,0.0,83.625,0.046,0.0,15.0,-0.042,15.0,54.0,0.0
10.571,0.3373,0.257,10.1324,0.00236,0.00083,-0.00128,0.0,83.775,0.046,0.0,15.0,-0.042,15.0,54.0,0.0
10.581,0.3871,-0.1709,9.8898,-0.00232,0.00059,0.00536,0.0,83.925,0.045,0.0,15.0,-0.042,15.0,54.0,0.0
10.591,0.2307,0.1064,9.5055,-0.00854,-0.00847,0.01335,0.0,84.075,0.045,0.0,15.0,-0.042,15.0,54.0,0.0
10.601,-0.2548,-0.2729,9.9745,-0.00059,-0.00051,0.00544,0.0,84.225,0.044,0.0,15.0,-0.042,15.0,54.0,0.0
10.611,-0.0606,0.5238,9.7839,0.00011,0.00281,-0.0028,0.0,84.375,0.044,0.0,15.0,-0.041,15.0,54.0,0.0
10.621,0.227,0.0187,9.4129,-0.00017,0.00089,-0.00376,0.0,84.525,0.043,0.0,15.0,-0.041,15.0,54.0,0.0
10.631,0.1325,0.337,9.7861,-0.00431,0.01431,-0.00642,0.0,84.675,0.043,0.0,15.0,-0.041,15.0,54.0,0.0
10.641,-0.1316,0.5396,9.9843,-0.0014,0.00414,0.00139,0.0,84.825,0.043,0.0,15.0,-0.041,15.0,54.0,0.0
10.651,-0.3131,0.1734,10.105,0.00434,0.00046,-0.00118,0.0,84.975,0.042,0.0,15.0,-0.041,15.0,54.0,0.0
10.661,-0.1516,0.0038,10.1424,0.01012,0.00275,0.0015,0.0,85.125,0.042,0.0,15.0,-0.041,15.0,54.0,0.0
10.671,0.3208,-0.1232,9.6355,-0.00843,0.01001,-0.00023,0.0,85.275,0.041,0.0,15.0,-0.041,15.0,54.0,0.0
10.681,0.2506,-0.0268,9.6644,0.00065,-0.00205,-0.00419,0.0,85.425,0.041,0.0,15.0,-0.04,15.0,54.0,0.0
10.691,0.1355,0.0416,9.6125,0.0067,0.00341,0.00742,0.0,85.575,0.041,0.0,15.0,-0.04,15.0,54.0,0.0
10.701,0.1231,-0.1235,9.2922,-0.00611,0.0049,-0.00146,0.0,85.725,0.04,0.0,15.0,-0.04,15.0,54.0,0.0
10.711,-0.3416,0.38,10.1111,0.00704,0.00189,-0.00453,0.0,85.875,0.04,0.0,15.0,-0.04,15.0,54.0,0.0
10.721,0.0713,-0.0264,10.0937,0.00475,-0.00508,-0.00854,0.0,86.025,0.039,0.0,15.0,-0.04,15.0,54.0,0.0
10.731,0.3898,-0.027,9.7706,-0.0023,-0.00467,-0.00729,0.0,86.175,0.039,0.0,15.0,-0.04,15.0,54.0,0.0
10.741,-0.2391,0.0277,9.8863,0.00192,0.00515,-0.00112,0.0,86.325,0.039,0.0,15.0,-0.04,15.0,54.0,0.0
10.751,0.3336,0.3074,8.4374,0.00105,-0.00154,0.00481,0.0,86.475,0.038,0.0,15.0,-0.039,15.0,54.0,0.0
10.761,-0.0644,0.0304,10.063,0.00474,-0.00769,-0.00813,0.0,86.625,0.038,0.0,15.0,-0.039,15.0,54.0,0.0
10.771,0.0517,-0.3366,9.793,0.00913,0.0036,-0.00113,0.0,86.775,0.037,0.0,15.0,-0.039,15.0,54.0,0.0
10.781,-0.1893,-0.0327,9.4363,-0.00894,0.00286,-0.00325,0.0,86.925,0.037,0.0,15.0,-0.039,15.0,54.0,0.0
10.791,-0.1361,0.1237,10.0057,-0.00561,0.00047,-0.00174,0.0,87.075,0.037,0.0,15.0,-0.039,15.0,54.0,0.0
10.801,0.2183,0.1904,9.7825,-0.00112,-0.00048,-0.00078,0.0,87.225,0.036,0.0,15.0,-0.039,15.0,54.0,0.0
10.811,-0.4031,0.3107,10.0035,-0.00057,-0.001,-0.00087,0.0,87.375,0.036,0.0,15.0,-0.038,15.0,54.0,0.0
10.821,0.0748,0.1391,10.0634,0.00472,0.00227,-0.00246,0.0,87.525,0.036,0.0,15.0,-0.038,15.0,54.0,0.0
10.831,-0.1327,0.2963,9.1939,0.00812,0.00552,0.00852,0.0,87.675,0.035,0.0,15.0,-0.038,15.0,54.0,0.0
10.841,0.0791,0.4246,10.4696,-0.00587,-0.00485,0.00719,0.0,87.825,0.035,0.0,15.0,-0.038,15.0,54.0,0.0
10.851,0.0517,0.199,9.5257,-0.00188,0.00195,-0.00205,0.0,87.975,0.034,0.0,15.0,-0.038,15.0,54.0,0.0
10.861,0.0177,-0.0313,9.9948,-0.00144,-0.01004,0.00566,0.0,88.125,0.034,0.0,15.0,-0.038,15.0,54.0,0.0
10.871,0.2295,-0.0172,9.9974,0.0078,-0.00594,-0.00152,0.0,88.275,0.034,0.0,15.0,-0.037,15.0,54.0,0.0
10.881,0.2605,-0.1166,9.1665,-0.00157,0.00265,-0.00346,0.0,88.425,0.033,0.0,15.0,-0.037,15.0,54.0,0.0
10.891,-0.1241,0.3415,9.9574,0.00028,0.0016,0.00222,0.0,88.575,0.033,0.0,15.0,-0.037,15.0,54.0,0.0
10.901,-0.0419,0.0802,9.5925,-0.00019,-0.0076,0.00858,0.0,88.725,0.033,0.0,15.0,-0.037,15.0,54.0,0.0
10.911,0.1067,-0.2159,10.1465,-0.00556,0.0033,0.00094,0.0,88.875,0.032,0.0,15.0,-0.037,15.0,54.0,0.0
10.921,0.2434,-0.0146,9.3956,-0.00446,-0.00127,0.00529,0.0,89.025,0.032,0.0,15.0,-0.037,15.0,54.0,0.0
10.931,0.0426,-0.2977,9.8983,0.00923,0.00861,-0.00419,0.0,89.175,0.031,0.0,15.0,-0.036,15.0,54.0,0.0
10.941,0.1507,0.2449,9.65,-0.00944,0.00885,-0.00536,0.0,89.325,0.031,0.0,15.0,-0.036,15.0,54.0,0.0
10.951,-0.3873,0.0442,10.1055,0.003,0.01156,0.00213,0.0,89.475,0.031,0.0,15.0,-0.036,15.0,54.0,0.0
10.961,-0.2284,0.2759,9.6247,-0.00107,-0.00026,-0.00263,0.0,89.625,0.03,0.0,15.0,-0.036,15.0,54.0,0.0
10.971,-0.3808,-0.1217,10.1057,-0.01146,0.00417,-0.00344,0.0,89.775,0.03,0.0,15.0,-0.036,15.0,54.0,0.0
10.981,0.1968,0.3731,9.5566,0.00058,-0.00038,0.00491,0.0,89.925,0.03,0.0,15.0,-0.036,15.0,54.0,0.0
10.991,0.5077,0.0751,9.695,0.00791,-0.00379,-0.00753,0.0,90.075,0.029,0.0,15.0,-0.035,15.0,54.0,0.0
11.001,-0.0494,0.1412,10.3229,0.00403,-0.00608,-0.00545,0.0,90.225,0.029,0.0,15.0,-0.035,15.0,54.0,0.0
11.011,-0.0311,0.0516,9.556,-0.00615,-0.00894,0.00158,0.0,90.375,0.029,0.0,15.0,-0.035,15.0,54.0,0.0
11.021,0.3243,0.0934,9.7033,0.00203,-0.00151,0.00381,0.0,90.525,0.028,0.0,15.0,-0.035,15.0,54.0,0.0
11.031,0.1432,-0.054,10.0987,-0.00192,0.00049,0.00515,0.0,90.675,0.028,0.0,15.0,-0.035,15.0,54.0,0.0
11.041,0.2511,0.0376,9.7876,0.00424,-0.00972,0.00207,0.0,90.825,0.028,0.0,15.0,-0.035,15.0,54.0,0.0
11.051,-0.0912,0.0864,10.7647,0.00214,-0.00386,-0.00511,0.0,90.975,0.027,0.0,15.0,-0.034,15.0,54.0,0.0
11.061,0.0142,-0.1467,9.8661,-0.00074,-0.004,-0.00117,0.0,91.125,0.027,0.0,15.0,-0.034,15.0,54.0,0.0
11.071,-0.4008,-0.0349,9.5024,-0.00463,-0.00231,-0.00406,0.0,91.275,0.027,0.0,15.0,-0.034,15.0,54.0,0.0
11.081,-0.2785,-0.1924,9.9832,-0.00358,-0.00437,0.00346,0.0,91.425,0.026,0.0,15.0,-0.034,15.0,54.0,0.0
11.091,0.1838,-0.2779,9.4851,-0.00224,0.0023,-0.01022,0.0,91.575,0.026,0.0,15.0,-0.034,15.0,54.0,0.0
11.101,-0.2502,-0.2352,10.1736,-0.00441,0.01275,-0.00799,0.0,91.725,0.026,0.0,15.0,-0.033,15.0,54.0,0.0
11.111,0.068,-0.0907,8.8585,-0.00302,0.00436,-0.00655,0.0,91.875,0.025,0.0,15.0,-0.033,15.0,54.0,0.0
11.121,0.0845,0.1489,10.0753,0.00444,0.00178,-0.01117,0.0,92.025,0.025,0.0,15.0,-0.033,15.0,54.0,0.0
11.131,-0.3073,0.0187,10.1258,-0.002,0.00816,0.00183,0.0,92.175,0.025,0.0,15.0,-0.033,15.0,54.0,0.0
11.141,-0.1596,-0.0095,10.1716,-2e-05,-0.00489,-0.00069,0.0,92.325,0.024,0.0,15.0,-0.033,15.0,54.0,0.0
11.151,-0.2895,-0.1486,9.4157,-0.00528,-0.00201,-0.00142,0.0,92.475,0.024,0.0,15.0,-0.033,15.0,54.0,0.0
11.161,0.0223,0.1584,9.4524,-0.00749,0.00948,0.00187,0.0,92.625,0.024,0.0,15.0,-0.032,15.0,54.0,0.0
11.171,0.3241,0.0326,10.1291,-0.00863,0.00064,0.00145,0.0,92.775,0.023,0.0,15.0,-0.032,15.0,54.0,0.0
11.181,-0.1023,-0.264,10.2176,0.00467,0.0036,0.00018,0.0,92.925,0.023,0.0,15.0,-0.032,15.0,54.0,0.0
11.191,0.1927,-0.182,10.0509,0.00167,-0.002,0.00231,0.0,93.075,0.023,0.0,15.0,-0.032,15.0,54.0,0.0
11.201,0.2674,0.5975,10.2638,-0.00272,-0.0062,-0.00308,0.0,93.225,0.022,0.0,15.0,-0.032,15.0,54.0,0.0
11.211,0.1759,-0.0012,9.9345,0.00058,0.00443,-0.00495,0.0,93.375,0.022,0.0,15.0,-0.031,15.0,54.0,0.0
11.221,-0.3923,-0.0715,9.8492,0.0004,0.01328,-0.00023,0.0,93.525,0.022,0.0,15.0,-0.031,15.0,54.0,0.0
11.231,-0.3044,0.4308,10.0448,0.00178,-0.00671,-0.00849,0.0,93.675,0.021,0.0,15.0,-0.031,15.0,54.0,0.0
11.241,-0.1434,-0.0254,9.0937,-9e-05,0.00453,0.0017,0.0,93.825,0.021,0.0,15.0,-0.031,15.0,54.0,0.0
11.251,-0.5295,-0.2353,9.7669,0.00503,-0.00143,-0.00647,0.0,93.975,0.021,0.0,15.0,-0.031,15.0,54.0,0.0
11.261,0.2481,-0.2638,10.2199,0.00496,0.00559,0.00906,0.0,94.125,0.02,0.0,15.0,-0.03,15.0,54.0,0.0
11.271,-0.126,-0.1301,9.828,0.00136,0.00291,-0.0017,0.0,94.275,0.02,0.0,15.0,-0.03,15.0,54.0,0.0
11.281,-0.1405,-0.0478,9.9521,0.00707,0.00449,-0.00542,0.0,94.425,0.02,0.0,15.0,-0.03,15.0,54.0,0.0
11.291,0.1269,0.0405,9.8396,-0.00419,0.0037,-0.00526,0.0,94.575,0.02,0.0,15.0,-0.03,15.0,54.0,0.0
11.301,0.259,0.2627,9.4974,0.00696,0.01035,-0.00628,0.0,94.725,0.019,0.0,15.0,-0.03,15.0,54.0,0.0
11.311,-0.0757,-0.0739,9.955,-0.00326,-9e-05,-0.01297,0.0,94.875,0.019,0.0,15.0,-0.029,15.0,54.0,0.0
11.321,-0.3007,0.1415,9.5436,-0.0063,0.00204,0.00136,0.0,95.025,0.019,0.0,15.0,-0.029,15.0,54.0,0.0
11.331,-0.2408,-0.3762,9.2035,-0.00433,-0.00482,-0.00686,0.0,95.175,0.018,0.0,15.0,-0.029,15.0,54.0,0.0
11.341,0.1055,-0.0616,9.8113,-0.00123,0.00835,-0.00042,0.0,95.325,0.018,0.0,15.0,-0.029,15.0,54.0,0.0
11.351,-0.4111,-0.247,9.2279,0.0014,0.00547,-0.00862,0.0,95.475,0.018,0.0,15.0,-0.029,15.0,54.0,0.0
11.361,-0.3885,-0.0982,9.7858,-0.00116,0.00351,-0.00025,0.0,95.625,0.017,0.0,15.0,-0.028,15.0,54.0,0.0
11.371,-0.1896,-0.243,9.8202,0.00873,0.00602,0.00549,0.0,95.775,0.017,0.0,15.0,-0.028,15.0,54.0,0.0
11.381,-0.0406,0.106,9.3442,0.0014,-0.00026,-0.00464,0.0,95.925,0.017,0.0,15.0,-0.028,15.0,54.0,0.0
11.391,0.0576,0.0787,10.0255,0.00072,0.00509,0.00475,0.0,96.075,0.017,0.0,15.0,-0.028,15.0,54.0,0.0
11.401,-0.1589,-0.0988,10.0789,-0.00831,-0.00142,0.00656,0.0,96.225,0.016,0.0,15.0,-0.028,15.0,54.0,0.0
11.411,-0.1777,0.1187,9.3575,0.01324,-0.00235,0.00439,0.0,96.375,0.016,0.0,15.0,-0.027,15.0,54.0,0.0
11.421,-0.2877,0.0192,9.9418,-0.00105,0.00437,0.00055,0.0,96.525,0.016,0.0,15.0,-0.027,15.0,54.0,0.0
11.431,-0.4073,-0.0528,9.7778,0.00379,-0.00331,0.00266,0.0,96.675,0.016,0.0,15.0,-0.027,15.0,54.0,0.0
11.441,-0.226,0.5361,9.1998,0.00434,0.01084,0.00615,0.0,96.825,0.015,0.0,15.0,-0.027,15.0,54.0,0.0
11.451,-0.2421,-0.0471,9.5211,-0.00703,0.00228,0.00493,0.0,96.975,0.015,0.0,15.0,-0.026,15.0,54.0,0.0
11.461,0.4011,0.0663,9.848,-0.01036,0.00175,0.00608,0.0,97.125,0.015,0.0,15.0,-0.026,15.0,54.0,0.0
11.471,-0.0415,-0.1521,9.986,0.00047,0.00183,-0.00206,0.0,97.275,0.015,0.0,15.0,-0.026,15.0,54.0,0.0
11.481,0.2489,-0.1326,9.058,0.00702,-0.00234,-0.00118,0.0,97.425,0.014,0.0,15.0,-0.026,15.0,54.0,0.0
11.491,-0.0932,-0.2558,9.8774,-0.00271,-0.00601,0.0,0.0,97.575,0.014,0.0,15.0,-0.026,15.0,54.0,0.0
11.501,-0.5419,0.4439,9.5376,-0.00848,0.00639,0.01002,0.0,97.725,0.014,0.0,15.0,-0.025,15.0,54.0,0.0
11.511,-0.2869,0.3165,9.3662,-7e-05,-0.00077,-0.01101,0.0,97.875,0.013,0.0,15.0,-0.025,15.0,54.0,0.0
11.521,-0.1321,0.5201,9.9286,0.00098,0.00176,0.00074,0.0,98.025,0.013,0.0,15.0,-0.025,15.0,54.0,0.0
11.531,-0.0492,-0.3109,9.9337,-0.00488,-0.00603,0.00588,0.0,98.175,0.013,0.0,15.0,-0.025,15.0,54.0,0.0
11.541,0.0731,-0.0379,10.3095,0.00359,0.00099,-0.0093,0.0,98.325,0.013,0.0,15.0,-0.025,15.0,54.0,0.0
11.551,0.0436,-0.3637,10.1793,-0.00037,0.00021,-0.0042,0.0,98.475,0.012,0.0,15.0,-0.024,15.0,54.0,0.0
11.561,-0.3103,-0.1199,9.4265,0.0073,-0.00511,0.00201,0.0,98.625,0.012,0.0,15.0,-0.024,15.0,54.0,0.0
11.571,0.3547,-0.0621,10.0949,0.0016,-0.00768,-0.00255,0.0,98.775,0.012,0.0,15.0,-0.024,15.0,54.0,0.0
11.581,0.0142,-0.1833,9.713,0.00407,0.00285,-0.00778,0.0,98.925,0.012,0.0,15.0,-0.024,15.0,54.0,0.0
11.591,0.453,0.1491,9.9776,-0.00447,0.00083,-0.00078,0.0,99.075,0.012,0.0,15.0,-0.023,15.0,54.0,0.0
11.601,-0.0907,-0.3408,9.1196,0.00461,-0.00709,0.00094,0.0,99.225,0.011,0.0,15.0,-0.023,15.0,54.0,0.0
11.611,-0.1437,-0.0189,9.2869,-0.00057,0.00339,0.00401,0.0,99.375,0.011,0.0,15.0,-0.023,15.0,54.0,0.0
11.621,-0.2192,-0.0316,9.7563,-0.00639,-0.00482,-0.00416,0.0,99.525,0.011,0.0,15.0,-0.023,15.0,54.0,0.0
11.631,0.1286,0.1212,9.5986,0.0008,0.00273,0.00218,0.0,99.675,0.011,0.0,15.0,-0.023,15.0,54.0,0.0
11.641,0.4097,-0.0379,9.6408,-0.00448,-0.00638,-0.00369,0.0,99.825,0.01,0.0,15.0,-0.022,15.0,54.0,0.0
11.651,-0.012,-0.253,9.5847,0.00072,-0.0017,0.00483,0.0,99.975,0.01,0.0,15.0,-0.022,15.0,54.0,0.0
11.661,0.0968,0.0563,9.6564,-0.00196,0.00327,-0.00374,0.0,100.125,0.01,0.0,15.0,-0.022,15.0,54.0,0.0
11.671,-0.3584,-0.1405,9.674,-0.00347,0.00315,0.00706,0.0,100.275,0.01,0.0,15.0,-0.022,15.0,54.0,0.0
11.681,-0.3118,-0.2261,9.8551,0.00459,-0.00103,-0.00087,0.0,100.425,0.01,0.0,15.0,-0.021,15.0,54.0,0.0
11.691,-0.2856,0.111,9.9967,-0.00235,0.00377,-0.00052,0.0,100.575,0.009,0.0,15.0,-0.021,15.0,54.0,0.0
11.701,0.1296,0.2246,9.6207,-0.00609,0.00786,-0.00111,0.0,100.725,0.009,0.0,15.0,-0.021,15.0,54.0,0.0
11.711,0.2056,-0.058,10.1083,0.00069,0.00412,0.00052,0.0,100.875,0.009,0.0,15.0,-0.021,15.0,54.0,0.0
11.721,-0.2063,-0.0385,9.6922,0.00134,0.01084,-0.01021,0.0,101.025,0.009,0.0,15.0,-0.021,15.0,54.0,0.0
11.731,0.0711,-0.0163,10.0758,-0.00784,-0.00117,0.00101,0.0,101.175,0.009,0.0,15.0,-0.02,15.0,54.0,0.0
11.741,0.0841,0.0385,9.6386,-0.01005,0.00413,0.00423,0.0,101.325,0.008,0.0,15.0,-0.02,15.0,54.0,0.0
11.751,-0.2702,0.1071,10.1665,0.0036,-0.00169,0.00772,0.0,101.475,0.008,0.0,15.0,-0.02,15.0,54.0,0.0
11.761,0.0125,-0.0662,9.5406,0.0084,-0.00105,0.00859,0.0,101.625,0.008,0.0,15.0,-0.02,15.0,54.0,0.0
11.771,-0.0885,0.0816,9.5755,0.00507,-0.00974,0.00157,0.0,101.775,0.008,0.0,15.0,-0.019,15.0,54.0,0.0
11.781,-0.3906,-0.0942,9.4934,2e-05,0.00208,0.0014,0.0,101.925,0.008,0.0,15.0,-0.019,15.0,54.0,0.0
11.791,-0.2275,0.2209,10.1587,-0.00687,0.00149,0.0003,0.0,102.075,0.007,0.0,15.0,-0.019,15.0,54.0,0.0
11.801,0.061,0.0443,9.773,-0.01426,-0.00452,-0.005,0.0,102.225,0.007,0.0,15.0,-0.019,15.0,54.0,0.0
11.811,0.0059,-0.0592,9.4528,0.00275,0.00314,-0.00467,0.0,102.375,0.007,0.0,15.0,-0.018,15.0,54.0,0.0
11.821,-0.0696,-0.1707,9.5453,-0.0038,0.00803,-0.00063,0.0,102.525,0.007,0.0,15.0,-0.018,15.0,54.0,0.0
11.831,0.1548,0.1918,9.2274,-0.00232,-0.00046,0.00145,0.0,102.675,0.007,0.0,15.0,-0.018,15.0,54.0,0.0
11.841,-0.0156,0.1305,9.3433,0.00703,0.0009,-0.00503,0.0,102.825,0.006,0.0,15.0,-0.018,15.0,54.0,0.0
11.851,-0.0748,-0.0714,9.573,0.00358,-0.00264,-0.00052,0.0,102.975,0.006,0.0,15.0,-0.018,15.0,54.0,0.0
11.861,0.0813,-0.2303,9.3979,0.00674,-0.00787,-0.00167,0.0,103.125,0.006,0.0,15.0,-0.017,15.0,54.0,0.0
11.871,0.1721,0.1252,10.2299,-0.00399,-0.00876,-0.00326,0.0,103.275,0.006,0.0,15.0,-0.017,15.0,54.0,0.0
11.881,-0.0559,0.2036,10.4845,-0.00417,0.00494,0.00091,0.0,103.425,0.006,0.0,15.0,-0.017,15.0,54.0,0.0
11.891,0.2424,-0.1358,10.0113,0.00102,0.00124,-0.00698,0.0,103.575,0.006,0.0,15.0,-0.017,15.0,54.0,0.0
11.901,-0.2572,0.2117,10.1118,-0.00173,-0.01044,-0.00113,0.0,103.725,0.005,0.0,15.0,-0.016,15.0,54.0,0.0
11.911,-0.1894,0.1129,9.5695,0.0033,-0.00773,-0.00114,0.0,103.875,0.005,0.0,15.0,-0.016,15.0,54.0,0.0
11.921,-0.0847,-0.1083,9.6259,0.0034,0.00152,-0.00096,0.0,104.025,0.005,0.0,15.0,-0.016,15.0,54.0,0.0
11.931,-0.1797,0.1341,9.3187,-0.00355,-0.00016,0.00473,0.0,104.175,0.005,0.0,15.0,-0.016,15.0,54.0,0.0
11.941,-0.2034,0.3143,10.5886,0.00108,-0.00092,-0.0014,0.0,104.325,0.005,0.0,15.0,-0.015,15.0,54.0,0.0
11.951,-0.0776,0.1458,10.2497,0.00136,-0.00259,0.00822,0.0,104.475,0.005,0.0,15.0,-0.015,15.0,54.0,0.0
11.961,0.1128,0.3063,9.7484,0.00771,0.00564,-0.00138,0.0,104.625,0.004,0.0,15.0,-0.015,15.0,54.0,0.0
11.971,0.4547,0.1255,9.3195,-0.00467,-0.0017,-0.00285,0.0,104.775,0.004,0.0,15.0,-0.015,15.0,54.0,0.0
11.981,-0.0019,-0.0077,9.8228,-0.00893,0.00171,-0.00395,0.0,104.925,0.004,0.0,15.0,-0.014,15.0,54.0,0.0
11.991,-0.3667,-0.1274,10.1233,-0.00386,0.00739,-0.00338,0.0,105.075,0.004,0.0,15.0,-0.014,15.0,54.0,0.0
12.001,-0.1241,0.2848,9.7435,-0.00175,0.00659,-0.00264,0.0,105.225,0.004,0.0,15.0,-0.014,15.0,54.0,0.0
12.011,0.5893,-0.2045,9.8036,-0.00528,-0.00115,-0.005,0.0,105.375,0.004,0.0,15.0,-0.014,15.0,54.0,0.0
