timestamp_s,ax,ay,az,gx,gy,gz,pos_x,pos_y,pos_z,vel_x,vel_y,vel_z,speed_mps,speed_kmh,heading_deg
0.0,0.2229,1.7441,10.0722,-0.00641,-0.00113,0.00417,0.0,0.0,0.0,0.0,0.015,0.0,0.015,0.05,0.0
0.01,-0.0969,1.913,10.1884,0.00187,0.00788,-0.00254,0.0,0.0,0.0,0.0,0.03,0.0,0.03,0.11,0.0
0.02,-0.156,1.4961,9.9005,0.00453,-0.00784,0.00148,0.0,0.001,0.0,0.0,0.045,0.001,0.045,0.16,0.0
0.03,-0.1746,1.2574,9.944,0.00193,0.00198,-0.00116,0.0,0.002,0.0,0.0,0.06,0.001,0.06,0.22,0.0
0.04,0.1595,1.4781,9.7552,-0.00098,0.00335,-0.00876,0.0,0.002,0.0,0.0,0.075,0.001,0.075,0.27,0.0
0.05,-0.3198,1.4734,9.8287,-0.00476,-0.00771,0.00465,0.0,0.003,0.0,0.0,0.09,0.001,0.09,0.32,0.0
0.06,-0.2879,1.5394,10.0245,0.00971,0.0098,0.00405,0.0,0.004,0.0,0.0,0.105,0.001,0.105,0.38,0.0
0.07,-0.4248,1.2583,9.3054,0.00695,0.00099,-0.00365,0.0,0.005,0.0,0.0,0.12,0.002,0.12,0.43,0.0
0.08,-0.0013,1.2745,9.7258,-0.00246,0.00519,0.00369,0.0,0.007,0.0,0.0,0.135,0.002,0.135,0.49,0.0
0.09,-0.1039,1.6737,9.2429,0.00719,0.00569,0.00012,0.0,0.008,0.0,0.0,0.15,0.002,0.15,0.54,0.0
0.1,0.025,1.7364,9.8553,0.00282,0.00101,-0.00185,0.0,0.01,0.0,0.0,0.165,0.002,0.165,0.59,0.0
0.11,0.0125,1.7724,10.5297,0.00177,9e-05,0.00609,0.0,0.012,0.0,0.0,0.18,0.003,0.18,0.65,0.0
0.12,0.0707,1.2264,9.4234,0.00078,-0.01299,-0.00218,0.0,0.014,0.0,0.0,0.195,0.003,0.195,0.7,0.0
0.13,-0.0379,1.489,9.7118,0.00388,-0.00089,-0.00114,0.0,0.016,0.0,0.0,0.21,0.003,0.21,0.76,0.0
0.14,0.0778,1.5746,10.0058,0.00198,-0.00731,-0.00072,0.0,0.018,0.0,0.0,0.225,0.003,0.225,0.81,0.0
0.15,-0.1893,1.1798,9.7415,0.00443,-0.00296,0.00016,0.0,0.02,0.0,0.0,0.24,0.004,0.24,0.86,0.0
0.16,0.12,1.4626,9.5789,0.00748,0.00725,0.00064,0.0,0.023,0.0,0.0,0.255,0.004,0.255,0.92,0.0
0.17,-0.1947,1.753,9.6829,0.01241,0.00801,0.00046,0.0,0.026,0.0,0.0,0.27,0.004,0.27,0.97,0.0
0.18,-0.1919,1.7106,9.7889,-0.00382,0.00043,0.00044,0.0,0.029,0.0,0.0,0.285,0.004,0.285,1.03,0.0
0.19,-0.2551,1.6419,9.5852,-0.00615,-0.00581,-0.00373,0.0,0.032,0.0,0.0,0.3,0.005,0.3,1.08,0.0
0.2,0.0597,1.5855,9.9075,0.00282,-0.00374,-0.0014,0.0,0.035,0.001,0.0,0.315,0.005,0.315,1.13,0.0
0.21,0.0697,1.4244,10.3004,-0.00408,-0.00493,-0.00578,0.0,0.038,0.001,0.0,0.33,0.005,0.33,1.19,0.0
0.22,-0.1538,1.4266,9.6267,0.00286,-0.0016,0.00532,0.0,0.041,0.001,0.0,0.345,0.005,0.345,1.24,0.0
0.23,0.2851,1.425,9.6228,0.00614,-0.00157,0.00994,0.0,0.045,0.001,0.0,0.36,0.006,0.36,1.3,0.0
0.24,-0.1723,1.227,9.5915,0.00173,-0.00088,0.00252,0.0,0.049,0.001,0.0,0.375,0.006,0.375,1.35,0.0
0.25,0.0702,1.6546,9.5724,-0.00204,-0.00166,7e-05,0.0,0.053,0.001,0.0,0.39,0.006,0.39,1.4,0.0
0.26,0.0252,1.3342,9.6449,-0.00435,0.00842,-0.00594,0.0,0.057,0.001,0.0,0.405,0.006,0.405,1.46,0.0
0.27,0.2078,1.4373,9.5298,0.00055,-0.00282,-0.00668,0.0,0.061,0.001,0.0,0.42,0.007,0.42,1.51,0.0
0.28,0.3177,1.4288,9.7157,-0.00121,0.00588,0.00772,0.0,0.065,0.001,0.0,0.435,0.007,0.435,1.57,0.0
0.29,-0.0872,1.7759,10.2706,-0.00762,0.00338,-0.00047,0.0,0.07,0.001,0.0,0.45,0.007,0.45,1.62,0.0
0.3,-0.0826,1.6539,9.7384,0.00256,0.00124,0.00732,0.0,0.074,0.001,0.0,0.465,0.007,0.465,1.67,0.0
0.31,-0.0788,1.132,9.959,-0.01113,0.00738,0.00427,0.0,0.079,0.001,0.0,0.48,0.008,0.48,1.73,0.0
0.32,0.181,1.5188,9.0458,0.00416,-0.00351,0.00224,0.0,0.084,0.001,0.0,0.495,0.008,0.495,1.78,0.0
0.33,0.079,1.4456,10.1973,0.00202,0.01077,0.00401,0.0,0.089,0.001,0.0,0.51,0.008,0.51,1.84,0.0
0.34,0.0361,1.5142,9.686,-0.01092,0.00163,-0.00733,0.0,0.095,0.001,0.0,0.525,0.008,0.525,1.89,0.0
0.35,0.2355,1.446,9.6467,0.00013,0.00464,-0.00482,0.0,0.1,0.002,0.0,0.54,0.009,0.54,1.94,0.0
0.36,-0.0758,1.5899,9.4762,-0.00302,-0.00178,-0.00559,0.0,0.105,0.002,0.0,0.555,0.009,0.555,2.0,0.0
0.37,0.1627,1.4642,10.5145,-0.00718,0.0034,0.00256,0.0,0.111,0.002,0.0,0.57,0.009,0.57,2.05,0.0
0.38,0.3257,1.7427,10.115,-0.00012,-0.00119,0.00479,0.0,0.117,0.002,0.0,0.585,0.009,0.585,2.11,0.0
0.39,0.1535,1.5859,10.1524,0.00064,-0.0051,-0.00948,0.0,0.123,0.002,0.0,0.6,0.01,0.6,2.16,0.0
0.4,-0.1616,1.4776,10.0064,0.00585,0.00109,0.00191,0.0,0.129,0.002,0.0,0.615,0.01,0.615,2.21,0.0
0.41,0.1776,1.4865,9.8184,-0.00309,0.00195,-0.00435,0.0,0.135,0.002,0.0,0.63,0.01,0.63,2.27,0.0
0.42,-0.0746,1.6815,10.3192,-0.00489,-0.00642,0.00567,0.0,0.142,0.002,0.0,0.645,0.01,0.645,2.32,0.0
0.43,-0.1273,1.349,10.0343,0.00412,0.00099,-0.00643,0.0,0.149,0.002,0.0,0.66,0.011,0.66,2.38,0.0
0.44,0.4419,1.532,9.7385,-0.00327,-0.00347,0.0085,0.0,0.155,0.002,0.0,0.675,0.011,0.675,2.43,0.0
0.45,-0.1043,1.6061,9.0263,0.00277,0.00856,-0.0005,0.0,0.162,0.003,0.0,0.69,0.011,0.69,2.48,0.0
0.46,0.2127,1.5037,10.2584,-0.00619,-0.00273,0.00034,0.0,0.169,0.003,0.0,0.705,0.011,0.705,2.54,0.0
0.47,0.0069,1.6547,10.3505,-0.00753,-0.00042,-0.00113,0.0,0.176,0.003,0.0,0.72,0.012,0.72,2.59,0.0
0.48,0.0012,1.4417,10.0178,0.0039,0.00088,0.00178,0.0,0.184,0.003,0.0,0.735,0.012,0.735,2.65,0.0
0.49,-0.3375,1.4644,10.066,-0.00083,0.00558,0.00176,0.0,0.191,0.003,0.0,0.75,0.012,0.75,2.7,0.0
0.5,-0.199,1.6473,9.9054,0.00546,-0.00636,-0.00062,0.0,0.199,0.003,0.0,0.765,0.012,0.765,2.75,0.0
0.51,-0.0695,1.6201,10.2284,-0.00971,0.00191,0.00537,0.0,0.207,0.003,0.0,0.78,0.013,0.78,2.81,0.0
0.52,0.3105,1.2052,10.4163,0.00176,0.00848,0.00693,0.0,0.215,0.003,0.0,0.795,0.013,0.795,2.86,0.0
0.53,0.1177,1.7319,9.9331,-0.00051,0.00281,-0.00097,0.0,0.223,0.004,0.0,0.81,0.013,0.81,2.92,0.0
0.54,-0.1235,1.2057,9.6344,0.01204,-0.00084,0.00252,0.0,0.231,0.004,0.0,0.825,0.013,0.825,2.97,0.0
0.55,0.4089,1.714,10.3065,0.00444,-0.00341,-0.0025,0.0,0.239,0.004,0.0,0.84,0.014,0.84,3.02,0.0
0.56,0.2708,1.2927,9.4729,-0.00592,-0.00825,0.0007,0.0,0.248,0.004,0.0,0.855,0.014,0.855,3.08,0.0
0.57,0.1601,1.2867,9.4952,0.00045,0.00596,-0.00666,0.0,0.257,0.004,0.0,0.87,0.014,0.87,3.13,0.0
0.58,0.2692,1.6038,9.6912,-0.00158,0.00138,0.00059,0.0,0.266,0.004,0.0,0.885,0.014,0.885,3.19,0.0
0.59,-0.1545,1.3996,9.2415,-0.00383,-0.00111,0.00568,0.0,0.275,0.004,0.0,0.9,0.015,0.9,3.24,0.0
0.6,-0.0484,1.4982,9.4094,-0.00462,-0.00494,0.00312,0.0,0.284,0.005,0.0,0.915,0.015,0.915,3.29,0.0
0.61,0.1909,1.2877,9.6368,-0.00308,-0.00135,0.0007,0.0,0.293,0.005,0.0,0.93,0.015,0.93,3.35,0.0
0.62,0.0947,1.7962,10.1972,-0.00057,-0.00156,0.00104,0.0,0.302,0.005,0.0,0.945,0.015,0.945,3.4,0.0
0.63,0.1307,1.5305,9.5534,0.00308,-0.00623,0.00413,0.0,0.312,0.005,0.0,0.96,0.015,0.96,3.46,0.0
0.64,-0.481,1.7749,10.305,-1e-05,-0.01224,0.00232,0.0,0.322,0.005,0.0,0.975,0.016,0.975,3.51,0.0
0.65,-0.2748,1.0588,9.8191,0.00172,0.00464,0.00309,0.0,0.332,0.005,0.0,0.99,0.016,0.99,3.56,0.0
0.66,0.0902,1.2164,9.7487,0.0053,0.00264,0.00399,0.0,0.342,0.005,0.0,1.005,0.016,1.005,3.62,0.0
0.67,0.2421,1.4136,9.7229,-0.00592,0.00782,0.00016,0.0,0.352,0.006,0.0,1.02,0.016,1.02,3.67,0.0
0.68,-0.1505,1.2907,9.6487,-0.00552,-0.00169,-4e-05,0.0,0.362,0.006,0.0,1.035,0.017,1.035,3.73,0.0
0.69,-0.1226,1.7391,9.3189,-0.00017,-0.00503,0.00039,0.0,0.373,0.006,0.0,1.05,0.017,1.05,3.78,0.0
0.7,-0.1246,1.7043,9.4627,-0.00531,-0.00572,0.0028,0.0,0.383,0.006,0.0,1.065,0.017,1.065,3.83,0.0
0.71,-0.2499,1.8087,9.4026,0.00238,0.0049,0.00637,0.0,0.394,0.006,0.0,1.08,0.017,1.08,3.89,0.0
0.72,-0.0322,1.4096,10.3367,-0.00629,0.00095,-8e-05,0.0,0.405,0.006,0.0,1.095,0.018,1.095,3.94,0.0
0.73,-0.4036,1.1653,9.8641,0.00804,-0.00716,0.00478,0.0,0.416,0.007,0.0,1.11,0.018,1.11,4.0,0.0
0.74,-0.0817,1.4904,10.2857,-0.00757,0.00491,-0.00954,0.0,0.428,0.007,0.0,1.125,0.018,1.125,4.05,0.0
0.75,-0.1319,1.9771,10.118,0.00122,-0.00084,0.00716,0.0,0.439,0.007,0.0,1.14,0.018,1.14,4.1,0.0
0.76,-0.3587,1.3823,9.7018,-0.01271,-0.00347,0.00508,0.0,0.45,0.007,0.0,1.155,0.019,1.155,4.16,0.0
0.77,-0.0932,1.2352,9.4731,0.00924,0.00065,0.0021,0.0,0.462,0.007,0.0,1.17,0.019,1.17,4.21,0.0
0.78,0.0598,1.5907,9.647,0.00286,-0.00439,0.00594,0.0,0.474,0.008,0.0,1.185,0.019,1.185,4.27,0.0
0.79,0.0222,1.4772,10.2783,-0.00255,0.00419,-0.00327,0.0,0.486,0.008,0.0,1.2,0.019,1.2,4.32,0.0
0.8,-0.3607,1.8904,9.899,0.00387,-0.00244,0.00736,0.0,0.498,0.008,0.0,1.215,0.019,1.215,4.37,0.0
0.81,0.2789,1.849,9.7457,-0.00275,0.0055,0.00301,0.0,0.51,0.008,0.0,1.23,0.02,1.23,4.43,0.0
0.82,0.032,1.6804,9.5281,-0.00271,-0.00186,0.00827,0.0,0.523,0.008,0.0,1.245,0.02,1.245,4.48,0.0
0.83,-0.4972,1.407,9.7994,-0.0022,-0.00121,-0.00058,0.0,0.536,0.009,0.0,1.26,0.02,1.26,4.54,0.0
0.84,-0.2766,1.6532,9.8722,0.00892,0.00131,6e-05,0.0,0.548,0.009,0.0,1.275,0.02,1.275,4.59,0.0
0.85,0.1912,1.2566,9.553,0.00191,0.00495,0.00916,0.0,0.561,0.009,0.0,1.29,0.021,1.29,4.64,0.0
0.86,0.158,1.852,9.2145,0.00396,-0.004,0.00574,0.0,0.574,0.009,0.0,1.305,0.021,1.305,4.7,0.0
0.87,0.2765,1.6379,9.3225,0.00281,0.00546,0.0095,0.0,0.587,0.009,0.0,1.32,0.021,1.32,4.75,0.0
0.88,-0.0127,1.3799,9.6587,-0.00172,0.00219,-0.00626,0.0,0.601,0.01,0.0,1.335,0.021,1.335,4.81,0.0
0.89,-0.2711,1.1116,9.283,-0.0058,-0.00617,-0.00909,0.0,0.614,0.01,0.0,1.35,0.022,1.35,4.86,0.0
0.9,-0.0356,1.3899,9.6292,-0.00135,0.00337,-0.00021,0.0,0.628,0.01,0.0,1.365,0.022,1.365,4.91,0.0
0.91,0.2309,1.2218,10.08,0.0021,-0.00703,0.00455,0.0,0.642,0.01,0.0,1.38,0.022,1.38,4.97,0.0
0.92,-0.1388,1.621,10.0363,-0.00249,-0.01739,-0.00146,0.0,0.656,0.011,0.0,1.395,0.022,1.395,5.02,0.0
0.93,0.2331,1.3442,9.5161,0.01146,0.00681,0.00441,0.0,0.67,0.011,0.0,1.41,0.022,1.41,5.08,0.0
0.94,0.1182,1.7628,9.7182,0.00349,0.01071,0.00497,0.0,0.684,0.011,0.0,1.425,0.023,1.425,5.13,0.0
0.95,0.1971,1.6298,10.0507,-0.00407,-0.00293,-0.00303,0.0,0.698,0.011,0.0,1.44,0.023,1.44,5.18,0.0
0.96,-0.469,1.7323,9.8103,-0.00046,0.00173,-0.00262,0.0,0.713,0.011,0.0,1.455,0.023,1.455,5.24,0.0
0.97,-0.2693,1.4906,9.6134,0.00151,0.00122,-0.00432,0.0,0.728,0.012,0.0,1.47,0.023,1.47,5.29,0.0
0.98,0.0483,1.4653,10.79,-0.00157,0.00129,-0.00787,0.0,0.742,0.012,0.0,1.485,0.024,1.485,5.35,0.0
0.99,-0.2847,1.571,10.0145,0.00223,0.00864,-0.00047,0.0,0.758,0.012,0.0,1.5,0.024,1.5,5.4,0.0
1.0,0.4482,1.4883,9.6976,0.00602,0.00821,-0.00616,0.0,0.773,0.012,0.0,1.515,0.024,1.515,5.45,0.0
1.01,0.5351,1.3591,9.5578,0.00619,0.01153,-0.00933,0.0,0.788,0.013,0.0,1.53,0.024,1.53,5.51,0.0
1.02,-0.1298,1.6497,9.7073,-0.00604,0.00074,-0.00138,0.0,0.803,0.013,0.0,1.545,0.024,1.545,5.56,0.0
1.03,-0.0824,1.2887,10.3664,0.00537,0.00146,0.00179,0.0,0.819,0.013,0.0,1.56,0.025,1.56,5.62,0.0
1.04,-0.1992,1.4614,10.0206,0.00505,0.00811,0.00339,0.0,0.835,0.013,0.0,1.575,0.025,1.575,5.67,0.0
1.05,0.1302,1.5775,9.6962,-0.00621,0.00196,0.00599,0.0,0.851,0.014,0.0,1.59,0.025,1.59,5.72,0.0
1.06,0.3784,1.3222,9.9012,0.00517,0.01,0.00101,0.0,0.867,0.014,0.0,1.605,0.025,1.605,5.78,0.0
1.07,0.0854,1.6772,10.1732,-0.00201,0.00671,0.00018,0.0,0.883,0.014,0.0,1.62,0.025,1.62,5.83,0.0
1.08,-0.0387,1.3638,9.5499,-0.00191,-0.00381,0.00566,0.0,0.899,0.014,0.0,1.635,0.026,1.635,5.89,0.0
1.09,0.0411,1.4943,9.2737,-0.00309,-0.00313,-0.00034,0.0,0.916,0.015,0.0,1.65,0.026,1.65,5.94,0.0
1.1,0.0192,1.3104,9.621,0.00036,0.00586,-0.00112,0.0,0.932,0.015,0.0,1.665,0.026,1.665,5.99,0.0
1.11,0.3596,1.8222,9.7708,-0.00385,0.00117,-0.0008,0.0,0.949,0.015,0.0,1.68,0.026,1.68,6.05,0.0
1.12,0.2222,1.3191,9.8161,0.00144,0.0015,-0.0063,0.0,0.966,0.015,0.0,1.695,0.027,1.695,6.1,0.0
1.13,-0.1541,1.317,9.851,-0.0006,-0.00395,-0.00486,0.0,0.983,0.016,0.0,1.71,0.027,1.71,6.16,0.0
1.14,-0.2778,1.2949,9.4003,0.00322,-0.00027,-0.00021,0.0,1.0,0.016,0.0,1.725,0.027,1.725,6.21,0.0
1.15,0.0325,1.5093,10.4093,0.0106,-0.00236,0.00242,0.0,1.018,0.016,0.0,1.74,0.027,1.74,6.26,0.0
1.16,0.5715,1.5928,9.8634,0.00128,-0.00602,0.00337,0.0,1.035,0.016,0.0,1.755,0.027,1.755,6.32,0.0
1.17,0.0731,1.766,10.1087,0.00511,-0.01007,-0.00256,0.0,1.053,0.017,0.0,1.77,0.028,1.77,6.37,0.0
1.18,0.1727,1.6437,9.5705,0.00431,0.00278,-0.01354,0.0,1.071,0.017,0.0,1.785,0.028,1.785,6.43,0.0
1.19,0.2097,1.4353,9.7462,-0.00288,0.00435,0.00123,0.0,1.089,0.017,0.0,1.8,0.028,1.8,6.48,0.0
1.2,0.0692,1.227,9.634,0.00535,0.00045,-0.00591,0.0,1.107,0.018,0.0,1.815,0.028,1.815,6.53,0.0
1.21,0.2599,1.8713,10.04,0.00539,0.00071,-0.00462,0.0,1.125,0.018,0.0,1.83,0.028,1.83,6.59,0.0
1.22,0.0456,1.4509,9.6725,0.00855,-0.00208,0.00118,0.0,1.144,0.018,0.0,1.845,0.029,1.845,6.64,0.0
1.23,0.2461,1.0589,10.4731,0.00267,-0.00423,0.00927,0.0,1.162,0.018,0.0,1.86,0.029,1.86,6.7,0.0
1.24,-0.0105,1.2373,9.4514,-0.00032,0.00313,0.00915,0.0,1.181,0.019,0.0,1.875,0.029,1.875,6.75,0.0
1.25,-0.073,1.1017,10.036,0.00631,8e-05,-0.00043,0.0,1.2,0.019,0.0,1.89,0.029,1.89,6.8,0.0
1.26,-0.349,1.6421,10.2757,0.00751,0.00043,-0.00263,0.0,1.219,0.019,0.0,1.905,0.029,1.905,6.86,0.0
1.27,0.0209,1.3544,9.4476,-0.00146,-0.00019,0.00523,0.0,1.238,0.02,0.0,1.92,0.03,1.92,6.91,0.0
1.28,0.0874,1.6353,9.5249,0.00043,0.00453,0.00021,0.0,1.258,0.02,0.0,1.935,0.03,1.935,6.97,0.0
1.29,-0.3481,1.2325,9.3886,-0.00383,-0.00108,-0.00411,0.0,1.277,0.02,0.0,1.95,0.03,1.95,7.02,0.0
1.3,-0.0095,1.5008,9.4378,0.00301,-0.00106,-0.00409,0.0,1.297,0.021,0.0,1.965,0.03,1.965,7.07,0.0
1.31,0.5675,1.4647,9.3765,-0.00136,-0.00896,-0.00199,0.0,1.317,0.021,0.0,1.98,0.03,1.98,7.13,0.0
1.32,-0.1221,1.5064,9.9171,-0.0028,-0.00213,0.00218,0.0,1.337,0.021,0.0,1.995,0.031,1.995,7.18,0.0
1.33,0.142,1.665,10.1155,-0.01068,-0.0055,0.00659,0.0,1.357,0.021,0.0,2.01,0.031,2.01,7.24,0.0
1.34,0.3307,1.3337,9.1789,0.00085,-0.0042,-0.00909,0.0,1.377,0.022,0.0,2.025,0.031,2.025,7.29,0.0
1.35,-0.2452,1.5715,9.6726,-0.00084,-0.00686,-0.0013,0.0,1.397,0.022,0.0,2.04,0.031,2.04,7.34,0.0
1.36,0.2623,1.433,9.7322,-0.00244,0.00752,0.00498,0.0,1.418,0.022,0.0,2.055,0.031,2.055,7.4,0.0
1.37,-0.4999,1.245,9.9464,0.0021,0.00303,-0.0028,0.0,1.439,0.023,0.0,2.07,0.032,2.07,7.45,0.0
1.38,0.0105,1.3211,9.8401,-0.00199,0.00186,0.00267,0.0,1.459,0.023,0.0,2.085,0.032,2.085,7.51,0.0
1.39,0.0035,1.4528,10.4162,-0.00129,-0.00244,0.00575,0.0,1.48,0.023,0.0,2.1,0.032,2.1,7.56,0.0
1.4,-0.3664,1.5278,9.7538,0.00037,0.00013,0.0115,0.0,1.502,0.024,0.0,2.115,0.032,2.115,7.61,0.0
1.41,-0.5048,1.3548,9.3005,0.00026,-0.01041,0.00427,0.0,1.523,0.024,0.0,2.13,0.032,2.13,7.67,0.0
1.42,-0.1032,1.242,9.9889,0.00746,-0.00376,0.00416,0.0,1.544,0.024,0.0,2.145,0.033,2.145,7.72,0.0
1.43,0.3118,1.6708,10.3624,-0.00054,0.00635,0.00261,0.0,1.566,0.025,0.0,2.16,0.033,2.16,7.78,0.0
1.44,-0.1469,1.5441,10.1393,-0.00228,-0.00164,-0.00038,0.0,1.588,0.025,0.0,2.175,0.033,2.175,7.83,0.0
1.45,-0.3183,1.5488,9.2418,-0.00182,0.00561,-0.00628,0.0,1.61,0.025,0.0,2.19,0.033,2.19,7.88,0.0
1.46,-0.0729,1.694,9.3936,-0.00177,0.00251,-0.00733,0.0,1.632,0.026,0.0,2.205,0.033,2.205,7.94,0.0
1.47,-0.3237,1.669,9.6939,0.00304,-0.00325,0.00198,0.0,1.654,0.026,0.0,2.22,0.034,2.22,7.99,0.0
1.48,0.136,1.6094,9.8704,0.00847,0.00977,0.00429,0.0,1.676,0.026,0.0,2.235,0.034,2.235,8.05,0.0
1.49,-0.0419,1.9293,9.4615,-0.00643,0.00288,0.00113,0.0,1.699,0.027,0.0,2.25,0.034,2.25,8.1,0.0
1.5,-0.0374,1.7145,9.5083,0.0086,-0.00103,0.00372,0.0,1.721,0.027,0.0,2.265,0.034,2.265,8.15,0.0
1.51,0.1871,1.2841,9.8062,-0.00142,-0.00156,0.00115,0.0,1.744,0.027,0.0,2.28,0.034,2.28,8.21,0.0
1.52,-0.0443,1.8155,9.9629,-0.00066,-0.00929,-0.00078,0.0,1.767,0.028,0.0,2.295,0.034,2.295,8.26,0.0
1.53,0.088,1.8028,10.3926,0.0088,0.00068,-0.00648,0.0,1.79,0.028,0.0,2.31,0.035,2.31,8.32,0.0
1.54,-0.0183,1.4549,9.9456,-0.00173,0.00725,0.00059,0.0,1.813,0.028,0.0,2.325,0.035,2.325,8.37,0.0
1.55,0.2752,1.5656,10.1001,-0.00422,0.00359,0.00574,0.0,1.837,0.029,0.0,2.34,0.035,2.34,8.42,0.0
1.56,-0.0807,1.3459,9.4166,0.00769,0.0014,0.00385,0.0,1.86,0.029,0.0,2.355,0.035,2.355,8.48,0.0
1.57,0.0765,1.9066,9.9096,0.00355,-0.0036,0.00042,0.0,1.884,0.029,0.0,2.37,0.035,2.37,8.53,0.0
1.58,0.0898,1.1849,9.8676,0.00306,0.00482,0.00487,0.0,1.908,0.03,0.0,2.385,0.036,2.385,8.59,0.0
1.59,-0.1439,1.4971,10.2012,-0.00214,4e-05,-0.00421,0.0,1.932,0.03,0.0,2.4,0.036,2.4,8.64,0.0
1.6,-0.4285,1.7812,9.6232,0.00073,0.00045,0.00183,0.0,1.956,0.031,0.0,2.415,0.036,2.415,8.69,0.0
1.61,0.2007,1.2004,9.7091,0.00334,-0.01002,0.00796,0.0,1.98,0.031,0.0,2.43,0.036,2.43,8.75,0.0
1.62,0.1292,1.0012,9.6412,-0.00813,-0.00241,-0.00346,0.0,2.005,0.031,0.0,2.445,0.036,2.445,8.8,0.0
1.63,-0.0108,1.2773,9.721,0.00453,0.00157,-0.009,0.0,2.029,0.032,0.0,2.46,0.036,2.46,8.86,0.0
1.64,0.4275,1.4607,9.7284,0.00878,0.00306,-0.00801,0.0,2.054,0.032,0.0,2.475,0.037,2.475,8.91,0.0
1.65,0.1379,1.3836,9.3885,0.00239,0.00522,-0.00496,0.0,2.079,0.032,0.0,2.49,0.037,2.49,8.96,0.0
1.66,-0.3445,1.4646,9.8047,0.00043,0.00372,-0.00392,0.0,2.104,0.033,0.0,2.505,0.037,2.505,9.02,0.0
1.67,0.1462,1.4547,10.1936,-0.00266,0.00596,0.00033,0.0,2.129,0.033,0.0,2.52,0.037,2.52,9.07,0.0
1.68,0.1958,1.5676,9.6797,-0.00355,-0.00917,0.00206,0.0,2.155,0.033,0.0,2.535,0.037,2.535,9.13,0.0
1.69,-0.0448,1.3131,9.3922,0.0052,0.00422,-0.00368,0.0,2.18,0.034,0.0,2.55,0.037,2.55,9.18,0.0
1.7,0.6314,1.4657,9.459,-0.0021,0.00204,0.00223,0.0,2.206,0.034,0.0,2.565,0.038,2.565,9.23,0.0
1.71,-0.1354,1.7645,9.523,0.0003,-0.00171,-0.00517,0.0,2.232,0.035,0.0,2.58,0.038,2.58,9.29,0.0
1.72,-0.0855,1.8516,8.9979,-0.0013,0.00229,-0.01039,0.0,2.258,0.035,0.0,2.595,0.038,2.595,9.34,0.0
1.73,-0.4029,1.1851,9.7443,0.00027,0.00328,-0.01062,0.0,2.284,0.035,0.0,2.61,0.038,2.61,9.4,0.0
1.74,0.05,1.5314,9.9064,0.00694,0.00738,0.00325,0.0,2.31,0.036,0.0,2.625,0.038,2.625,9.45,0.0
1.75,0.3661,1.661,10.1038,-0.00393,0.00261,0.0013,0.0,2.336,0.036,0.0,2.64,0.038,2.64,9.5,0.0
1.76,0.1727,1.7011,9.8777,-0.00333,-0.00381,-0.00115,0.0,2.363,0.036,0.0,2.655,0.039,2.655,9.56,0.0
1.77,-0.2924,1.5132,10.0706,0.0026,0.00487,0.00188,0.0,2.39,0.037,0.0,2.67,0.039,2.67,9.61,0.0
1.78,-0.1815,1.9095,10.849,0.00591,0.00878,-0.00285,0.0,2.416,0.037,0.0,2.685,0.039,2.685,9.67,0.0
1.79,-0.2955,1.59,10.0022,-0.00569,0.00475,-0.00723,0.0,2.443,0.038,0.0,2.7,0.039,2.7,9.72,0.0
1.8,0.2235,1.3664,9.5483,-0.00103,-0.0009,0.0027,0.0,2.471,0.038,0.0,2.715,0.039,2.715,9.77,0.0
1.81,0.102,1.372,10.2202,-0.00579,0.00184,-0.004,0.0,2.498,0.038,0.0,2.73,0.039,2.73,9.83,0.0
1.82,-0.4024,1.6253,9.5469,0.00265,-0.00408,-0.00205,0.0,2.525,0.039,0.0,2.745,0.039,2.745,9.88,0.0
1.83,-0.079,1.5319,9.2513,-0.00303,0.00227,-0.00726,0.0,2.553,0.039,0.0,2.76,0.04,2.76,9.94,0.0
1.84,0.2172,1.8177,10.0246,-0.00106,0.00094,0.00632,0.0,2.581,0.04,0.0,2.775,0.04,2.775,9.99,0.0
1.85,0.0028,1.4891,10.005,-0.0,-0.0038,0.0021,0.0,2.609,0.04,0.0,2.79,0.04,2.79,10.04,0.0
1.86,-0.0445,1.6407,9.891,-0.00413,-0.00098,0.00774,0.0,2.637,0.04,0.0,2.805,0.04,2.805,10.1,0.0
1.87,0.1621,1.5844,9.831,0.00351,0.00525,0.00688,0.0,2.665,0.041,0.0,2.82,0.04,2.82,10.15,0.0
1.88,-0.1805,1.37,10.3417,0.00487,-0.00374,0.00078,0.0,2.693,0.041,0.0,2.835,0.04,2.835,10.21,0.0
1.89,0.1076,1.5111,10.3118,-0.00996,0.0037,-0.00294,0.0,2.722,0.042,0.0,2.85,0.041,2.85,10.26,0.0
1.9,0.2059,1.7397,9.9599,-0.00261,-0.00142,-0.00341,0.0,2.75,0.042,0.0,2.865,0.041,2.865,10.31,0.0
1.91,-0.0558,1.4452,9.995,0.00333,-0.01062,0.0043,0.0,2.779,0.042,0.0,2.88,0.041,2.88,10.37,0.0
1.92,0.2943,1.6252,10.2741,-0.00543,0.0002,0.00492,0.0,2.808,0.043,0.0,2.895,0.041,2.895,10.42,0.0
1.93,0.159,1.3738,9.6865,0.00599,-0.00044,-0.00362,0.0,2.837,0.043,0.0,2.91,0.041,2.91,10.48,0.0
1.94,0.1305,1.6429,9.4449,-0.00603,-0.00317,0.00178,0.0,2.866,0.044,0.0,2.925,0.041,2.925,10.53,0.0
1.95,-0.0849,1.6787,9.9089,0.00636,-0.00227,0.00585,0.0,2.896,0.044,0.0,2.94,0.041,2.94,10.58,0.0
1.96,-0.024,1.796,10.1071,0.00802,0.00135,0.00954,0.0,2.925,0.045,0.0,2.955,0.042,2.955,10.64,0.0
1.97,0.2688,1.2777,9.3955,-0.0067,-0.00226,0.00205,0.0,2.955,0.045,0.0,2.97,0.042,2.97,10.69,0.0
1.98,0.0632,1.6654,9.3275,-0.00054,0.00105,-0.00122,0.0,2.985,0.045,0.0,2.985,0.042,2.985,10.75,0.0
1.99,0.0231,1.279,10.2512,0.00591,-0.00266,0.0021,0.0,3.015,0.046,0.0,3.0,0.042,3.0,10.8,0.0
2.0,0.132,1.3829,9.7758,5e-05,0.00118,-0.00096,0.0,3.045,0.046,0.0,3.015,0.042,3.015,10.85,0.0
2.01,-0.0695,1.3177,9.8425,0.0063,-0.00629,0.00106,0.0,3.075,0.047,0.0,3.03,0.042,3.03,10.91,0.0
2.02,0.1821,1.4976,9.505,0.00662,-0.00352,-0.00704,0.0,3.106,0.047,0.0,3.045,0.042,3.045,10.96,0.0
2.03,-0.0428,1.7365,9.8594,-0.00378,0.00134,0.00369,0.0,3.136,0.047,0.0,3.06,0.042,3.06,11.02,0.0
2.04,-0.0744,1.6029,10.1396,0.01396,0.00194,-0.00808,0.0,3.167,0.048,0.0,3.075,0.043,3.075,11.07,0.0
2.05,0.1982,1.7704,9.8107,-0.00104,0.00011,0.00018,0.0,3.198,0.048,0.0,3.09,0.043,3.09,11.12,0.0
2.06,0.2956,1.5681,10.2472,0.00918,-0.00163,-0.00124,0.0,3.229,0.049,0.0,3.105,0.043,3.105,11.18,0.0
2.07,-0.3216,2.0375,9.2237,-0.00255,-0.00118,0.00106,0.0,3.26,0.049,0.0,3.12,0.043,3.12,11.23,0.0
2.08,-0.1573,1.4455,9.5661,0.00071,0.0049,-0.00645,0.0,3.292,0.05,0.0,3.135,0.043,3.135,11.29,0.0
2.09,-0.2443,1.279,9.7639,-0.00574,0.00274,-0.00478,0.0,3.323,0.05,0.0,3.15,0.043,3.15,11.34,0.0
2.1,0.5555,1.6224,9.594,0.00624,0.0048,0.00878,0.0,3.355,0.05,0.0,3.165,0.043,3.165,11.39,0.0
2.11,0.2248,1.7961,10.1721,0.00318,0.00245,-0.00501,0.0,3.387,0.051,0.0,3.18,0.043,3.18,11.45,0.0
2.12,0.2643,1.5691,9.7806,-0.01419,0.0026,-0.00013,0.0,3.419,0.051,0.0,3.195,0.044,3.195,11.5,0.0
2.13,-0.0773,1.2435,9.8069,0.00333,0.00609,0.00288,0.0,3.451,0.052,0.0,3.21,0.044,3.21,11.56,0.0
2.14,0.0414,1.6181,10.0834,0.00839,0.00055,0.00587,0.0,3.483,0.052,0.0,3.225,0.044,3.225,11.61,0.0
2.15,0.0613,1.4271,9.7249,0.00698,-0.00891,0.0042,0.0,3.515,0.053,0.0,3.24,0.044,3.24,11.66,0.0
2.16,-0.1091,1.7055,9.5504,-0.00036,-0.00172,0.00684,0.0,3.548,0.053,0.0,3.255,0.044,3.255,11.72,0.0
2.17,-0.2412,1.1539,9.6285,0.00341,0.00649,0.00205,0.0,3.581,0.054,0.0,3.27,0.044,3.27,11.77,0.0
2.18,-0.1402,1.303,9.9732,0.00632,0.00508,0.00162,0.0,3.613,0.054,0.0,3.285,0.044,3.285,11.83,0.0
2.19,-0.4506,1.5087,9.5386,-0.00034,0.00552,-0.00705,0.0,3.646,0.054,0.0,3.3,0.044,3.3,11.88,0.0
2.2,0.4539,1.9929,10.0057,-0.00065,0.00185,-0.00172,0.0,3.68,0.055,0.0,3.315,0.045,3.315,11.93,0.0
2.21,-0.7154,1.3984,9.3942,-0.01193,-0.00455,-0.00053,0.0,3.713,0.055,0.0,3.33,0.045,3.33,11.99,0.0
2.22,0.3687,1.6765,9.4235,-0.00216,-0.0037,-0.00363,0.0,3.746,0.056,0.0,3.345,0.045,3.345,12.04,0.0
2.23,-0.1679,1.5587,9.5692,-0.00144,-0.00314,-0.00028,0.0,3.78,0.056,0.0,3.36,0.045,3.36,12.1,0.0
2.24,-0.1083,1.3635,9.7968,0.00735,0.00203,0.0008,0.0,3.814,0.057,0.0,3.375,0.045,3.375,12.15,0.0
2.25,-0.0827,1.5213,9.7322,-0.00127,-0.00495,-0.00191,0.0,3.848,0.057,0.0,3.39,0.045,3.39,12.2,0.0
2.26,-0.1885,1.6611,9.4882,-0.00088,-0.00143,-0.00064,0.0,3.882,0.058,0.0,3.405,0.045,3.405,12.26,0.0
2.27,0.3839,1.5713,9.7858,-0.01118,0.00129,0.00211,0.0,3.916,0.058,0.0,3.42,0.045,3.42,12.31,0.0
2.28,-0.3151,1.5097,9.0892,-0.00678,-0.00012,0.00161,0.0,3.95,0.058,0.0,3.435,0.045,3.435,12.37,0.0
2.29,0.1597,1.5234,9.9072,-0.00284,0.00367,0.00113,0.0,3.985,0.059,0.0,3.45,0.046,3.45,12.42,0.0
2.3,0.524,1.3001,9.7687,0.00357,0.0065,0.00019,0.0,4.019,0.059,0.0,3.465,0.046,3.465,12.47,0.0
2.31,-0.3123,1.6427,9.3918,0.00481,0.00264,-0.0034,0.0,4.054,0.06,0.0,3.48,0.046,3.48,12.53,0.0
2.32,0.1313,1.3357,9.2303,-0.00512,0.0011,0.00381,0.0,4.089,0.06,0.0,3.495,0.046,3.495,12.58,0.0
2.33,-0.5525,1.417,9.6043,-0.00735,0.00242,0.00327,0.0,4.124,0.061,0.0,3.51,0.046,3.51,12.64,0.0
2.34,-0.0845,1.5272,9.7647,-0.00059,7e-05,-0.00616,0.0,4.159,0.061,0.0,3.525,0.046,3.525,12.69,0.0
2.35,-0.2102,1.434,9.4845,9e-05,0.00342,-0.0015,0.0,4.195,0.062,0.0,3.54,0.046,3.54,12.74,0.0
2.36,0.0534,1.4545,10.6062,-0.00783,-0.00405,-0.00547,0.0,4.23,0.062,0.0,3.555,0.046,3.555,12.8,0.0
2.37,0.6586,1.4269,9.9528,0.00024,0.00186,0.00353,0.0,4.266,0.063,0.0,3.57,0.046,3.57,12.85,0.0
2.38,-0.1575,1.4279,10.1454,0.00729,0.00071,0.00366,0.0,4.302,0.063,0.0,3.585,0.046,3.585,12.91,0.0
2.39,-0.0961,1.5799,9.0273,0.01505,-0.00373,-0.00119,0.0,4.338,0.064,0.0,3.6,0.047,3.6,12.96,0.0
2.4,-0.4137,1.3772,9.2887,0.00243,-0.00708,0.00535,0.0,4.374,0.064,0.0,3.615,0.047,3.615,13.01,0.0
2.41,-0.2986,1.8045,9.1736,0.01097,0.00168,-0.00213,0.0,4.41,0.064,0.0,3.63,0.047,3.63,13.07,0.0
2.42,-0.0086,1.2798,9.8703,-0.00214,-0.00158,-0.00251,0.0,4.447,0.065,0.0,3.645,0.047,3.645,13.12,0.0
2.43,0.142,1.3503,9.7118,0.00269,-0.00425,0.0055,0.0,4.483,0.065,0.0,3.66,0.047,3.66,13.18,0.0
2.44,-0.1137,1.7606,10.1102,-0.00493,0.00646,0.00405,0.0,4.52,0.066,0.0,3.675,0.047,3.675,13.23,0.0
2.45,0.0718,1.6946,9.3652,0.00174,0.00525,-0.00232,0.0,4.557,0.066,0.0,3.69,0.047,3.69,13.28,0.0
2.46,0.0183,1.3507,9.5225,0.00298,-0.00266,-0.00661,0.0,4.594,0.067,0.0,3.705,0.047,3.705,13.34,0.0
2.47,-0.209,1.7076,9.6402,-0.00673,0.00278,-0.00524,0.0,4.631,0.067,0.0,3.72,0.047,3.72,13.39,0.0
2.48,0.0836,1.5443,9.7979,-0.00554,0.00086,0.00442,0.0,4.669,0.068,0.0,3.735,0.047,3.735,13.45,0.0
2.49,-0.1326,1.1144,9.4091,0.00524,0.01228,-0.00285,0.0,4.706,0.068,0.0,3.75,0.047,3.75,13.5,0.0
2.5,0.0325,1.4911,10.0005,-0.00302,0.00176,0.00011,0.0,4.744,0.069,0.0,3.765,0.047,3.765,13.55,0.0
2.51,-0.0695,1.4324,10.2217,0.00059,-0.01202,0.00548,0.0,4.782,0.069,0.0,3.78,0.048,3.78,13.61,0.0
2.52,-0.0452,1.6092,9.8213,0.00583,-0.00152,0.00269,0.0,4.82,0.07,0.0,3.795,0.048,3.795,13.66,0.0
2.53,-0.0374,1.7902,9.8094,-0.00492,0.00886,-0.00421,0.0,4.858,0.07,0.0,3.81,0.048,3.81,13.72,0.0
2.54,-0.2263,1.4447,10.3702,0.01007,-0.002,0.00117,0.0,4.896,0.071,0.0,3.825,0.048,3.825,13.77,0.0
2.55,0.0038,1.6768,9.4393,-0.00139,0.00172,-0.00581,0.0,4.934,0.071,0.0,3.84,0.048,3.84,13.82,0.0
2.56,-0.3876,1.1703,9.826,-0.00762,-0.00094,-0.00484,0.0,4.973,0.072,0.0,3.855,0.048,3.855,13.88,0.0
2.57,-0.0589,1.8381,9.4117,-0.01122,-0.00239,-0.00083,0.0,5.012,0.072,0.0,3.87,0.048,3.87,13.93,0.0
2.58,-0.0364,1.6964,9.5402,-0.00269,-0.0038,-0.00544,0.0,5.051,0.073,0.0,3.885,0.048,3.885,13.99,0.0
2.59,-0.5883,1.8036,9.7061,0.00431,-0.00093,-0.00495,0.0,5.09,0.073,0.0,3.9,0.048,3.9,14.04,0.0
2.6,-0.0474,1.5857,9.5658,-0.00958,-0.00639,-0.0056,0.0,5.129,0.073,0.0,3.915,0.048,3.915,14.09,0.0
2.61,-0.1327,1.2695,10.122,-0.00573,0.00376,-0.00473,0.0,5.168,0.074,0.0,3.93,0.048,3.93,14.15,0.0
2.62,-0.4325,1.5538,9.9893,-5e-05,0.0027,0.00483,0.0,5.207,0.074,0.0,3.945,0.048,3.945,14.2,0.0
2.63,0.1281,1.6524,10.0371,0.00664,0.00176,-0.00052,0.0,5.247,0.075,0.0,3.96,0.048,3.96,14.26,0.0
2.64,-0.2026,1.1354,9.6989,-0.00455,0.00082,-0.00032,0.0,5.287,0.075,0.0,3.975,0.048,3.975,14.31,0.0
2.65,-0.0629,1.4837,8.928,0.00551,-0.00127,6e-05,0.0,5.327,0.076,0.0,3.99,0.048,3.99,14.36,0.0
2.66,-0.0278,1.3238,9.9152,0.0078,0.00658,-0.00624,0.0,5.367,0.076,0.0,4.005,0.049,4.005,14.42,0.0
2.67,-0.4895,1.8676,9.8383,0.01278,-0.00773,-0.00397,0.0,5.407,0.077,0.0,4.02,0.049,4.02,14.47,0.0
2.68,0.1714,1.2452,9.8333,0.00045,-0.00052,-0.00217,0.0,5.447,0.077,0.0,4.035,0.049,4.035,14.53,0.0
2.69,0.216,1.6669,10.0944,-0.00614,0.00779,0.0027,0.0,5.488,0.078,0.0,4.05,0.049,4.05,14.58,0.0
2.7,0.0603,0.9851,9.4439,-0.00414,-0.00831,-0.00098,0.0,5.528,0.078,0.0,4.065,0.049,4.065,14.63,0.0
2.71,-0.2081,1.1942,9.9365,0.0009,-0.00523,0.0004,0.0,5.569,0.079,0.0,4.08,0.049,4.08,14.69,0.0
2.72,0.2147,1.5365,10.1697,-0.00427,0.00666,0.00504,0.0,5.61,0.079,0.0,4.095,0.049,4.095,14.74,0.0
2.73,-0.1958,1.1258,10.2937,0.00575,-0.00129,0.00082,0.0,5.651,0.08,0.0,4.11,0.049,4.11,14.8,0.0
2.74,-0.4441,1.6468,9.4731,-0.00719,-0.00275,0.0031,0.0,5.693,0.08,0.0,4.125,0.049,4.125,14.85,0.0
2.75,-0.1343,1.3155,9.3158,-0.00582,-0.00016,0.00197,0.0,5.734,0.081,0.0,4.14,0.049,4.14,14.9,0.0
2.76,-0.0539,1.6621,9.4953,-0.00015,0.00452,0.00314,0.0,5.775,0.081,0.0,4.155,0.049,4.155,14.96,0.0
2.77,0.0293,1.7662,9.494,-0.00444,-0.0013,0.00492,0.0,5.817,0.082,0.0,4.17,0.049,4.17,15.01,0.0
2.78,0.0085,1.5552,9.781,0.00015,0.00099,-0.00142,0.0,5.859,0.082,0.0,4.185,0.049,4.185,15.07,0.0
2.79,-0.2452,1.6025,9.8705,0.00998,-0.00303,0.0043,0.0,5.901,0.083,0.0,4.2,0.049,4.2,15.12,0.0
2.8,0.0207,1.5081,9.3145,-0.00125,-1e-05,-0.00458,0.0,5.943,0.083,0.0,4.215,0.049,4.215,15.17,0.0
2.81,0.0548,1.7627,9.7272,-0.00613,0.0065,0.00178,0.0,5.985,0.084,0.0,4.23,0.049,4.23,15.23,0.0
2.82,0.417,1.2557,9.8705,-0.00168,-0.00554,-0.00018,0.0,6.028,0.084,0.0,4.245,0.049,4.245,15.28,0.0
2.83,-0.066,1.4989,9.7299,-0.00351,0.00115,-0.00164,0.0,6.071,0.085,0.0,4.26,0.049,4.26,15.34,0.0
2.84,0.3424,1.5884,9.3235,0.00696,0.00265,-0.00148,0.0,6.113,0.085,0.0,4.275,0.049,4.275,15.39,0.0
2.85,0.3356,1.1582,9.9688,-0.00313,0.00279,-0.00208,0.0,6.156,0.086,0.0,4.29,0.049,4.29,15.44,0.0
2.86,0.1963,1.2623,10.0628,0.00292,0.00423,-0.00827,0.0,6.199,0.086,0.0,4.305,0.05,4.305,15.5,0.0
2.87,0.2432,1.6456,9.871,0.00548,0.00494,-0.00125,0.0,6.242,0.087,0.0,4.32,0.05,4.32,15.55,0.0
2.88,-0.1811,1.8112,9.8241,-0.00543,0.00372,0.00144,0.0,6.286,0.087,0.0,4.335,0.05,4.335,15.61,0.0
2.89,0.4126,1.6949,9.6609,-0.00533,-0.00909,0.0066,0.0,6.329,0.088,0.0,4.35,0.05,4.35,15.66,0.0
2.9,0.3618,1.5386,9.322,0.00237,-0.00232,-0.00656,0.0,6.373,0.088,0.0,4.365,0.05,4.365,15.71,0.0
2.91,-0.197,1.5329,10.5307,0.00533,0.00022,-0.00428,0.0,6.417,0.089,0.0,4.38,0.05,4.38,15.77,0.0
2.92,0.1322,1.4791,9.9905,-0.01136,-0.00085,0.00528,0.0,6.461,0.089,0.0,4.395,0.05,4.395,15.82,0.0
2.93,-0.0495,1.4589,9.8937,0.00299,-0.00924,-8e-05,0.0,6.505,0.09,0.0,4.41,0.05,4.41,15.88,0.0
2.94,0.0742,1.643,10.48,0.01092,-0.00538,-0.01013,0.0,6.549,0.09,0.0,4.425,0.05,4.425,15.93,0.0
2.95,-0.193,1.6213,9.8708,-0.00684,0.00554,0.00324,0.0,6.593,0.091,0.0,4.44,0.05,4.44,15.98,0.0
2.96,-0.178,1.5796,9.4968,-0.00759,-0.00265,0.00379,0.0,6.638,0.091,0.0,4.455,0.05,4.455,16.04,0.0
2.97,0.3066,1.4761,9.8195,0.00173,0.0022,0.00046,0.0,6.683,0.092,0.0,4.47,0.05,4.47,16.09,0.0
2.98,0.1861,1.6725,9.6348,-0.00521,-0.01193,-0.00394,0.0,6.728,0.092,0.0,4.485,0.05,4.485,16.15,0.0
2.99,0.0245,1.5807,9.7619,0.00783,-0.00229,0.00083,0.0,6.773,0.093,0.0,4.5,0.05,4.5,16.2,0.0
3.0,-0.1044,1.3099,10.0836,-0.00444,0.00793,-0.00819,0.0,6.818,0.093,0.0,4.515,0.05,4.515,16.25,0.0
3.01,0.1646,1.532,9.2581,-0.00822,0.00397,0.00014,0.0,6.863,0.094,0.0,4.53,0.05,4.53,16.31,0.0
3.02,-0.3474,1.3285,10.3675,0.00644,0.00204,0.00157,0.0,6.908,0.094,0.0,4.545,0.05,4.545,16.36,0.0
3.03,0.3905,1.4832,9.8858,0.0029,-0.00385,-0.00252,0.0,6.954,0.095,0.0,4.56,0.05,4.56,16.42,0.0
3.04,0.1941,1.8188,10.013,1e-05,-0.00686,-0.00257,0.0,7.0,0.095,0.0,4.575,0.05,4.575,16.47,0.0
3.05,-0.2794,2.0502,10.3066,-0.00249,0.00187,0.00317,0.0,7.046,0.096,0.0,4.59,0.05,4.59,16.52,0.0
3.06,0.0668,1.4715,10.2323,0.003,0.00384,0.00479,0.0,7.092,0.096,0.0,4.605,0.05,4.605,16.58,0.0
3.07,-0.1201,1.6436,9.6698,-0.00699,0.00316,-0.00162,0.0,7.138,0.097,0.0,4.62,0.05,4.62,16.63,0.0
3.08,0.0894,1.2581,10.1582,0.0054,0.00308,0.00442,0.0,7.184,0.097,0.0,4.635,0.05,4.635,16.69,0.0
3.09,0.13,1.4675,9.8373,0.00586,-0.00063,0.00741,0.0,7.231,0.098,0.0,4.65,0.05,4.65,16.74,0.0
3.1,0.2485,1.5764,9.6442,-0.00252,-0.00068,-0.00331,0.0,7.277,0.098,0.0,4.665,0.05,4.665,16.79,0.0
3.11,0.1139,1.4208,9.4021,-0.00571,-0.0033,0.00751,0.0,7.324,0.099,0.0,4.68,0.05,4.68,16.85,0.0
3.12,0.2666,1.4447,9.6186,0.0023,-0.00157,0.00128,0.0,7.371,0.099,0.0,4.695,0.05,4.695,16.9,0.0
3.13,0.0681,1.348,10.0659,0.00016,-0.00228,-0.00373,0.0,7.418,0.1,0.0,4.71,0.05,4.71,16.96,0.0
3.14,-0.1439,1.2618,9.3584,-0.00029,-0.0065,0.00567,0.0,7.466,0.1,0.0,4.725,0.05,4.725,17.01,0.0
3.15,-0.1099,1.5613,9.8267,-0.00367,0.00324,-0.00708,0.0,7.513,0.101,0.0,4.74,0.05,4.74,17.06,0.0
3.16,0.3742,1.6837,9.6676,0.00137,0.00028,0.00416,0.0,7.56,0.101,0.0,4.755,0.05,4.755,17.12,0.0
3.17,-0.0055,1.2082,10.223,-0.00029,0.00493,-0.00199,0.0,7.608,0.102,0.0,4.77,0.05,4.77,17.17,0.0
3.18,-0.2017,1.7976,8.8893,0.00151,0.00153,0.00175,0.0,7.656,0.102,0.0,4.785,0.05,4.785,17.23,0.0
3.19,-0.0177,1.5523,9.6225,0.00421,0.00033,0.00332,0.0,7.704,0.103,0.0,4.8,0.05,4.8,17.28,0.0
3.2,-0.2161,1.4834,9.4972,0.00564,0.01292,-0.00235,0.0,7.752,0.103,0.0,4.815,0.05,4.815,17.33,0.0
3.21,0.3771,1.4777,9.8716,0.00609,0.00389,0.0083,0.0,7.8,0.104,0.0,4.83,0.05,4.83,17.39,0.0
3.22,-0.4091,1.6082,9.385,0.00824,0.00493,0.00189,0.0,7.849,0.104,0.0,4.845,0.05,4.845,17.44,0.0
3.23,-0.0968,1.4699,8.8012,0.00723,0.00594,0.00302,0.0,7.898,0.105,0.0,4.86,0.05,4.86,17.5,0.0
3.24,-0.0892,1.5919,10.2744,-0.00055,-0.00671,0.00615,0.0,7.946,0.105,0.0,4.875,0.05,4.875,17.55,0.0
3.25,0.1107,1.5323,9.4536,0.00012,-0.00128,0.00053,0.0,7.995,0.106,0.0,4.89,0.05,4.89,17.6,0.0
3.26,-0.3873,1.4467,9.9617,0.0064,-0.01017,-9e-05,0.0,8.044,0.106,0.0,4.905,0.05,4.905,17.66,0.0
3.27,-0.4071,1.7558,10.0189,8e-05,0.00354,-0.00459,0.0,8.093,0.107,0.0,4.92,0.05,4.92,17.71,0.0
3.28,-0.1312,1.2661,9.8988,-0.00139,-0.00421,-0.00934,0.0,8.143,0.107,0.0,4.935,0.05,4.935,17.77,0.0
3.29,0.4675,1.1589,9.0869,0.00034,-0.00221,0.00472,0.0,8.192,0.108,0.0,4.95,0.05,4.95,17.82,0.0
3.3,-0.1787,1.2583,10.1033,-0.00064,0.00085,-0.0069,0.0,8.242,0.108,0.0,4.965,0.05,4.965,17.87,0.0
3.31,0.0903,1.4007,10.3181,-0.00259,-0.00081,-0.00935,0.0,8.292,0.109,0.0,4.98,0.05,4.98,17.93,0.0
3.32,-0.0397,1.3747,10.288,0.00374,-0.00099,0.00421,0.0,8.342,0.109,0.0,4.995,0.05,4.995,17.98,0.0
3.33,0.269,1.0621,10.1276,0.00863,-0.00657,-7e-05,0.0,8.392,0.11,0.0,5.01,0.05,5.01,18.04,0.0
3.34,0.2712,1.5799,9.6524,-0.00372,0.00263,0.01178,0.0,8.442,0.11,0.0,5.025,0.05,5.025,18.09,0.0
3.35,0.1468,1.7147,9.9909,0.00195,0.00287,-0.01163,0.0,8.492,0.111,0.0,5.04,0.05,5.04,18.14,0.0
3.36,-0.2261,1.5986,10.0087,-0.0008,0.01178,0.00199,0.0,8.543,0.111,0.0,5.055,0.05,5.055,18.2,0.0
3.37,0.3151,1.5855,9.47,-0.00192,0.0041,-0.00616,0.0,8.594,0.112,0.0,5.07,0.05,5.07,18.25,0.0
3.38,0.0065,1.6842,10.2364,0.01361,-0.00621,0.00065,0.0,8.644,0.112,0.0,5.085,0.05,5.085,18.31,0.0
3.39,0.0107,1.4503,9.5196,0.00253,0.01479,-0.00803,0.0,8.696,0.113,0.0,5.1,0.05,5.1,18.36,0.0
3.4,0.2913,1.7064,9.7969,0.00053,0.00418,0.00363,0.0,8.747,0.113,0.0,5.115,0.05,5.115,18.41,0.0
3.41,0.4281,1.4227,9.5405,-0.00186,-0.00166,0.00079,0.0,8.798,0.114,0.0,5.13,0.05,5.13,18.47,0.0
3.42,-0.0403,1.8393,9.8355,-0.00081,0.00047,-0.00154,0.0,8.849,0.114,0.0,5.145,0.05,5.145,18.52,0.0
3.43,-0.1264,1.3118,9.5526,-0.00735,-0.00272,-0.01105,0.0,8.901,0.115,0.0,5.16,0.049,5.16,18.58,0.0
3.44,0.2289,1.4216,9.5641,-0.00383,0.0028,-0.001,0.0,8.953,0.115,0.0,5.175,0.049,5.175,18.63,0.0
3.45,-0.2369,1.3325,9.8764,-0.00895,-0.00566,0.00244,0.0,9.005,0.116,0.0,5.19,0.049,5.19,18.68,0.0
3.46,-0.1168,1.6113,9.2049,0.00013,0.00281,-0.00261,0.0,9.057,0.116,0.0,5.205,0.049,5.205,18.74,0.0
3.47,-0.237,1.5499,9.6085,0.00441,0.00811,-0.00395,0.0,9.109,0.117,0.0,5.22,0.049,5.22,18.79,0.0
3.48,-0.026,1.5842,9.6117,0.00235,-0.0086,0.00728,0.0,9.161,0.117,0.0,5.235,0.049,5.235,18.85,0.0
3.49,0.2004,1.7143,9.6396,0.00323,0.00137,-0.00939,0.0,9.214,0.118,0.0,5.25,0.049,5.25,18.9,0.0
3.5,0.0006,1.5071,9.9265,0.00105,-0.00642,-0.00451,0.0,9.266,0.118,0.0,5.265,0.049,5.265,18.95,0.0
3.51,-0.0252,1.5692,9.7458,-0.00024,0.00268,-0.00018,0.0,9.319,0.119,0.0,5.28,0.049,5.28,19.01,0.0
3.52,-0.2997,1.5405,10.0031,0.00685,-0.00971,-0.0014,0.0,9.372,0.119,0.0,5.295,0.049,5.295,19.06,0.0
3.53,0.2332,1.3387,9.3476,0.00076,0.0012,-0.00442,0.0,9.425,0.12,0.0,5.31,0.049,5.31,19.12,0.0
3.54,-0.6904,1.0375,9.7233,0.0017,-0.00644,0.00388,0.0,9.478,0.12,0.0,5.325,0.049,5.325,19.17,0.0
3.55,-0.0967,1.702,10.0109,-0.00734,-0.00619,0.0015,0.0,9.532,0.121,0.0,5.34,0.049,5.34,19.22,0.0
3.56,0.3001,1.6649,9.8035,-0.0021,0.00441,-0.01106,0.0,9.585,0.121,0.0,5.355,0.049,5.355,19.28,0.0
3.57,0.0634,1.6611,10.1209,0.00099,0.00532,-0.00704,0.0,9.639,0.122,0.0,5.37,0.049,5.37,19.33,0.0
3.58,0.025,1.7331,10.0481,0.00739,-0.00036,-7e-05,0.0,9.693,0.122,0.0,5.385,0.049,5.385,19.39,0.0
3.59,0.1866,1.3811,10.0457,-0.00052,0.00416,0.00738,0.0,9.747,0.122,0.0,5.4,0.049,5.4,19.44,0.0
3.6,0.1759,1.3837,9.554,-0.01103,0.00682,0.0023,0.0,9.801,0.123,0.0,5.415,0.049,5.415,19.49,0.0
3.61,0.2201,1.0192,9.6494,-0.00745,0.00083,-0.00431,0.0,9.855,0.123,0.0,5.43,0.049,5.43,19.55,0.0
3.62,0.2068,0.9384,10.0438,0.00477,-0.00294,6e-05,0.0,9.91,0.124,0.0,5.445,0.049,5.445,19.6,0.0
3.63,0.0087,1.4948,8.9706,-0.00051,-0.00693,0.00252,0.0,9.964,0.124,0.0,5.46,0.049,5.46,19.66,0.0
3.64,-0.1199,1.4698,9.6223,-0.00721,0.00045,-0.00046,0.0,10.019,0.125,0.0,5.475,0.048,5.475,19.71,0.0
3.65,-0.1063,1.3993,9.5816,-0.00095,0.00489,0.00257,0.0,10.074,0.125,0.0,5.49,0.048,5.49,19.76,0.0
3.66,-0.1498,1.5765,9.3739,-0.00199,0.003,-0.00264,0.0,10.129,0.126,0.0,5.505,0.048,5.505,19.82,0.0
3.67,0.3573,1.6705,9.8225,0.00226,0.00141,-0.00239,0.0,10.184,0.126,0.0,5.52,0.048,5.52,19.87,0.0
3.68,0.108,1.6458,10.0452,0.00382,-0.01073,0.00668,0.0,10.24,0.127,0.0,5.535,0.048,5.535,19.93,0.0
3.69,-0.2371,1.491,9.8017,-0.00273,0.00384,0.00134,0.0,10.295,0.127,0.0,5.55,0.048,5.55,19.98,0.0
3.7,-0.1468,1.3497,9.7474,0.00417,-0.00628,0.00397,0.0,10.351,0.128,0.0,5.565,0.048,5.565,20.03,0.0
3.71,0.0272,1.7027,9.9395,0.0012,0.00877,0.00662,0.0,10.407,0.128,0.0,5.58,0.048,5.58,20.09,0.0
3.72,0.1835,1.4615,9.5921,-0.00877,-0.01196,-0.00876,0.0,10.463,0.129,0.0,5.595,0.048,5.595,20.14,0.0
3.73,0.029,1.4476,9.9267,0.00055,0.00473,-0.00225,0.0,10.519,0.129,0.0,5.61,0.048,5.61,20.2,0.0
3.74,-0.0989,1.3358,9.6953,-0.01109,-0.00245,0.00706,0.0,10.575,0.13,0.0,5.625,0.048,5.625,20.25,0.0
3.75,0.074,1.5754,10.8223,0.00447,-0.00173,0.00942,0.0,10.631,0.13,0.0,5.64,0.048,5.64,20.3,0.0
3.76,-0.1747,1.6105,9.2106,-0.00372,-0.00151,0.00163,0.0,10.688,0.131,0.0,5.655,0.048,5.655,20.36,0.0
3.77,-0.7471,1.3399,9.1067,0.00109,-0.00532,0.00821,0.0,10.745,0.131,0.0,5.67,0.048,5.67,20.41,0.0
3.78,0.172,1.3948,9.6142,-0.00576,0.00767,-0.00879,0.0,10.801,0.132,0.0,5.685,0.047,5.685,20.47,0.0
3.79,-0.2684,1.5838,9.8956,-0.00183,-0.00243,0.00387,0.0,10.858,0.132,0.0,5.7,0.047,5.7,20.52,0.0
3.8,-0.0395,1.6128,10.0053,-0.00317,-0.00193,0.0014,0.0,10.916,0.133,0.0,5.715,0.047,5.715,20.57,0.0
3.81,-0.0876,1.2618,9.4648,0.00684,-0.00462,-0.01097,0.0,10.973,0.133,0.0,5.73,0.047,5.73,20.63,0.0
3.82,0.0197,1.1462,9.5409,0.01099,-0.00357,0.00974,0.0,11.03,0.134,0.0,5.745,0.047,5.745,20.68,0.0
3.83,0.1341,1.6528,9.6133,0.00866,-0.00827,0.00027,0.0,11.088,0.134,0.0,5.76,0.047,5.76,20.74,0.0
3.84,0.1665,1.0932,10.0307,0.0005,0.00361,-0.00765,0.0,11.146,0.134,0.0,5.775,0.047,5.775,20.79,0.0
3.85,-0.187,1.7367,10.0781,0.00641,-0.00218,-0.0007,0.0,11.204,0.135,0.0,5.79,0.047,5.79,20.84,0.0
3.86,-0.1427,1.4421,9.2825,0.00286,-0.00621,-0.00277,0.0,11.262,0.135,0.0,5.805,0.047,5.805,20.9,0.0
3.87,0.0485,1.4701,10.1426,0.01635,-0.00493,0.00353,0.0,11.32,0.136,0.0,5.82,0.047,5.82,20.95,0.0
3.88,0.4312,1.5106,9.6277,-0.00334,-0.00403,0.0034,0.0,11.378,0.136,0.0,5.835,0.047,5.835,21.01,0.0
3.89,0.144,1.5427,9.0364,-0.00534,-0.00111,-0.00425,0.0,11.437,0.137,0.0,5.85,0.047,5.85,21.06,0.0
3.9,-0.1744,1.5258,10.0953,0.00621,0.00011,0.00247,0.0,11.495,0.137,0.0,5.865,0.046,5.865,21.11,0.0
3.91,0.1289,1.5473,9.7447,0.00192,0.00293,0.0033,0.0,11.554,0.138,0.0,5.88,0.046,5.88,21.17,0.0
3.92,0.046,1.5167,9.7298,-0.00435,0.00336,-0.00197,0.0,11.613,0.138,0.0,5.895,0.046,5.895,21.22,0.0
3.93,0.1045,1.581,9.5388,0.008,0.01207,-0.00441,0.0,11.672,0.139,0.0,5.91,0.046,5.91,21.28,0.0
3.94,-0.0852,1.5575,9.9227,0.0073,0.00127,0.00571,0.0,11.731,0.139,0.0,5.925,0.046,5.925,21.33,0.0
3.95,0.0078,1.7191,9.8009,0.00016,-0.00051,-0.00332,0.0,11.791,0.14,0.0,5.94,0.046,5.94,21.38,0.0
3.96,-0.2129,1.3816,10.0402,0.00076,-0.00594,0.00843,0.0,11.85,0.14,0.0,5.955,0.046,5.955,21.44,0.0
3.97,0.0105,1.6804,9.6244,0.00852,-0.00179,-0.00309,0.0,11.91,0.14,0.0,5.97,0.046,5.97,21.49,0.0
3.98,-0.3156,1.6057,10.0848,-0.00906,0.00041,-0.00109,0.0,11.97,0.141,0.0,5.985,0.046,5.985,21.55,0.0
3.99,-0.1832,1.4214,9.8828,0.00252,-0.00336,-0.00232,0.0,12.03,0.141,0.0,6.0,0.046,6.0,21.6,0.0
4.0,0.0857,1.4566,9.742,0.00046,-3e-05,0.00158,0.0,12.09,0.142,0.0,6.015,0.045,6.015,21.65,0.0
4.01,-0.0029,1.5647,9.2255,0.01089,0.00539,-0.00983,0.0,12.15,0.142,0.0,6.03,0.045,6.03,21.71,0.0
4.02,0.033,1.2177,9.5117,0.00236,-0.00054,0.0049,0.0,12.211,0.143,0.0,6.045,0.045,6.045,21.76,0.0
4.03,-0.2039,1.3087,9.7554,0.00373,-0.00373,-0.00575,0.0,12.271,0.143,0.0,6.06,0.045,6.06,21.82,0.0
4.04,0.1394,1.7431,9.5318,0.00043,0.00289,-0.00486,0.0,12.332,0.144,0.0,6.075,0.045,6.075,21.87,0.0
4.05,0.2843,1.3646,9.8703,-0.00322,-0.00293,0.00015,0.0,12.393,0.144,0.0,6.09,0.045,6.09,21.92,0.0
4.06,-0.3351,1.7513,9.6607,0.00259,0.00192,-0.00311,0.0,12.454,0.145,0.0,6.105,0.045,6.105,21.98,0.0
4.07,-0.2586,1.6732,9.5649,0.00764,-0.00031,0.00303,0.0,12.515,0.145,0.0,6.12,0.045,6.12,22.03,0.0
4.08,0.0609,1.4047,9.1523,-0.00063,-0.00299,0.00338,0.0,12.577,0.145,0.0,6.135,0.045,6.135,22.09,0.0
4.09,0.1597,1.3831,9.9745,-0.00696,-0.00119,-0.00033,0.0,12.638,0.146,0.0,6.15,0.044,6.15,22.14,0.0
4.1,-0.286,1.4247,10.145,-0.00728,-0.00467,-0.00275,0.0,12.7,0.146,0.0,6.165,0.044,6.165,22.19,0.0
4.11,-0.115,1.7067,9.9467,0.00064,-0.00463,-0.00366,0.0,12.762,0.147,0.0,6.18,0.044,6.18,22.25,0.0
4.12,-0.3534,1.4578,9.4352,-0.00417,0.00486,0.0062,0.0,12.824,0.147,0.0,6.195,0.044,6.195,22.3,0.0
4.13,-0.0444,1.5722,9.8602,0.0049,0.00475,-0.00664,0.0,12.886,0.148,0.0,6.21,0.044,6.21,22.36,0.0
4.14,-0.0457,1.4635,10.4192,0.00611,-0.00042,-2e-05,0.0,12.948,0.148,0.0,6.225,0.044,6.225,22.41,0.0
4.15,0.1226,1.5138,9.9267,-0.0025,0.00771,-0.00593,0.0,13.01,0.149,0.0,6.24,0.044,6.24,22.46,0.0
4.16,0.1015,1.6652,10.1148,-0.00223,0.00817,0.00581,0.0,13.073,0.149,0.0,6.255,0.044,6.255,22.52,0.0
4.17,0.194,1.5248,10.1112,-0.0096,-0.00323,-0.00254,0.0,13.136,0.149,0.0,6.27,0.044,6.27,22.57,0.0
4.18,0.1457,1.455,9.9793,-0.00068,0.00055,0.00259,0.0,13.198,0.15,0.0,6.285,0.043,6.285,22.63,0.0
4.19,0.0917,1.5347,9.7406,0.00476,-0.00961,-0.0037,0.0,13.261,0.15,0.0,6.3,0.043,6.3,22.68,0.0
4.2,-0.4547,1.4406,8.9438,0.00094,-0.0054,0.0009,0.0,13.325,0.151,0.0,6.315,0.043,6.315,22.73,0.0
4.21,-0.2463,1.2461,9.4831,-0.0014,0.00966,-0.00443,0.0,13.388,0.151,0.0,6.33,0.043,6.33,22.79,0.0
4.22,0.0965,1.3769,10.4987,0.00569,0.00201,-0.00348,0.0,13.451,0.152,0.0,6.345,0.043,6.345,22.84,0.0
4.23,0.0904,1.4676,9.5427,-0.00117,-0.00238,0.01348,0.0,13.515,0.152,0.0,6.36,0.043,6.36,22.9,0.0
4.24,-0.1079,1.3676,9.7921,-0.00052,0.0003,0.0021,0.0,13.579,0.152,0.0,6.375,0.043,6.375,22.95,0.0
4.25,-0.0046,1.6692,10.0213,0.00038,-0.00132,0.00652,0.0,13.643,0.153,0.0,6.39,0.043,6.39,23.0,0.0
4.26,-0.3264,1.5247,10.3189,0.00406,0.0006,-0.00446,0.0,13.707,0.153,0.0,6.405,0.042,6.405,23.06,0.0
4.27,0.2355,1.3962,9.6577,0.00074,-0.00328,0.00153,0.0,13.771,0.154,0.0,6.42,0.042,6.42,23.11,0.0
4.28,0.7469,1.8252,10.0794,0.00579,0.00491,0.00873,0.0,13.835,0.154,0.0,6.435,0.042,6.435,23.17,0.0
4.29,0.4464,1.1834,10.1362,0.00553,-0.00198,-0.00183,0.0,13.9,0.155,0.0,6.45,0.042,6.45,23.22,0.0
4.3,0.1083,1.4507,9.9186,-0.00707,-0.00542,-0.00097,0.0,13.964,0.155,0.0,6.465,0.042,6.465,23.27,0.0
4.31,0.0158,1.2514,10.0173,-0.00416,0.00774,-0.00019,0.0,14.029,0.155,0.0,6.48,0.042,6.48,23.33,0.0
4.32,-0.1779,1.1101,10.1235,0.00662,-0.00432,6e-05,0.0,14.094,0.156,0.0,6.495,0.042,6.495,23.38,0.0
4.33,-0.2186,1.3684,9.746,0.00486,-0.00257,0.0023,0.0,14.159,0.156,0.0,6.51,0.041,6.51,23.44,0.0
4.34,0.202,1.5933,9.782,0.0029,-0.00098,-0.00211,0.0,14.224,0.157,0.0,6.525,0.041,6.525,23.49,0.0
4.35,0.2281,1.8766,9.8493,-0.00105,0.00316,0.00228,0.0,14.29,0.157,0.0,6.54,0.041,6.54,23.54,0.0
4.36,-0.0917,1.4551,9.5588,-0.0071,0.01203,0.00331,0.0,14.355,0.157,0.0,6.555,0.041,6.555,23.6,0.0
4.37,-0.4461,1.6743,9.6656,0.00773,0.00398,0.00208,0.0,14.421,0.158,0.0,6.57,0.041,6.57,23.65,0.0
4.38,0.3785,1.6158,9.6061,0.00373,-0.00053,0.00137,0.0,14.487,0.158,0.0,6.585,0.041,6.585,23.71,0.0
4.39,-0.3972,1.5725,10.1985,0.0067,0.00255,0.00219,0.0,14.553,0.159,0.0,6.6,0.041,6.6,23.76,0.0
4.4,-0.0834,1.0667,10.2987,-0.00711,0.00634,-0.00369,0.0,14.619,0.159,0.0,6.615,0.04,6.615,23.81,0.0
4.41,0.0382,1.7125,9.5242,-0.00173,0.00396,-0.00231,0.0,14.685,0.159,0.0,6.63,0.04,6.63,23.87,0.0
4.42,0.4156,1.0342,9.9531,0.00889,9e-05,-0.00154,0.0,14.752,0.16,0.0,6.645,0.04,6.645,23.92,0.0
4.43,0.0253,1.3693,9.7981,-0.00513,-0.00517,-0.00239,0.0,14.818,0.16,0.0,6.66,0.04,6.66,23.98,0.0
4.44,-0.0463,1.5844,10.498,-0.00044,0.0027,0.0021,0.0,14.885,0.161,0.0,6.675,0.04,6.675,24.03,0.0
4.45,0.0426,1.2664,9.5539,-0.00023,0.00467,-0.00087,0.0,14.952,0.161,0.0,6.69,0.04,6.69,24.08,0.0
4.46,-0.0481,1.6287,9.6099,0.00573,0.00655,0.00093,0.0,15.019,0.161,0.0,6.705,0.04,6.705,24.14,0.0
4.47,-0.0499,1.3146,9.7934,0.0059,0.0004,-0.00551,0.0,15.086,0.162,0.0,6.72,0.039,6.72,24.19,0.0
4.48,-0.0977,1.5366,10.1578,0.00571,-0.00444,0.00419,0.0,15.154,0.162,0.0,6.735,0.039,6.735,24.25,0.0
4.49,-0.3015,1.3889,10.0875,0.00031,-0.00027,-0.00015,0.0,15.221,0.163,0.0,6.75,0.039,6.75,24.3,0.0
4.5,-0.1199,1.44,9.9038,0.00454,0.0043,0.00207,0.0,15.289,0.163,0.0,6.765,0.039,6.765,24.35,0.0
4.51,0.4402,1.4588,10.3077,0.00821,-0.00411,0.00476,0.0,15.357,0.163,0.0,6.78,0.039,6.78,24.41,0.0
4.52,-0.1089,1.8304,9.6126,-0.00035,0.00602,0.00463,0.0,15.425,0.164,0.0,6.795,0.039,6.795,24.46,0.0
4.53,0.113,1.6578,9.6986,0.00175,0.01326,0.00059,0.0,15.493,0.164,0.0,6.81,0.038,6.81,24.52,0.0
4.54,0.0633,1.816,9.2529,-0.0023,0.0057,0.00438,0.0,15.561,0.165,0.0,6.825,0.038,6.825,24.57,0.0
4.55,0.036,1.0564,9.9833,-0.00442,-0.00957,-0.00055,0.0,15.629,0.165,0.0,6.84,0.038,6.84,24.62,0.0
4.56,0.0897,1.9084,10.6011,-0.00234,0.00635,-0.00135,0.0,15.698,0.165,0.0,6.855,0.038,6.855,24.68,0.0
4.57,-0.2843,1.7464,10.3792,0.00356,0.00478,0.00574,0.0,15.767,0.166,0.0,6.87,0.038,6.87,24.73,0.0
4.58,-0.0929,0.9935,9.6457,0.00631,-0.00823,0.00745,0.0,15.835,0.166,0.0,6.885,0.038,6.885,24.79,0.0
4.59,-0.5236,1.4774,9.9427,0.0007,0.00505,0.00112,0.0,15.904,0.166,0.0,6.9,0.037,6.9,24.84,0.0
4.6,0.037,1.5249,9.8177,0.00428,-0.00436,-0.00019,0.0,15.974,0.167,0.0,6.915,0.037,6.915,24.89,0.0
4.61,0.1578,1.5334,10.5743,-0.00697,0.00471,-0.00633,0.0,16.043,0.167,0.0,6.93,0.037,6.93,24.95,0.0
4.62,0.0961,1.5819,9.5262,0.00147,0.00328,-0.00025,0.0,16.112,0.168,0.0,6.945,0.037,6.945,25.0,0.0
4.63,-0.1443,1.4458,10.1169,-0.00897,-0.00691,-0.00045,0.0,16.182,0.168,0.0,6.96,0.037,6.96,25.06,0.0
4.64,0.2786,1.5917,10.0509,-0.00208,0.00398,-0.00209,0.0,16.252,0.168,0.0,6.975,0.037,6.975,25.11,0.0
4.65,0.1847,1.4906,9.6496,-0.00557,0.00132,0.0036,0.0,16.322,0.169,0.0,6.99,0.036,6.99,25.16,0.0
4.66,-0.2583,1.4539,9.5774,-0.00146,0.0023,-0.00722,0.0,16.392,0.169,0.0,7.005,0.036,7.005,25.22,0.0
4.67,-0.1885,1.6297,9.9042,0.00553,-0.00172,-0.00314,0.0,16.462,0.169,0.0,7.02,0.036,7.02,25.27,0.0
4.68,0.1704,1.4949,9.8925,-0.00588,0.00503,0.00294,0.0,16.532,0.17,0.0,7.035,0.036,7.035,25.33,0.0
4.69,0.1047,1.6602,10.0804,0.00162,0.00606,-0.00162,0.0,16.603,0.17,0.0,7.05,0.036,7.05,25.38,0.0
4.7,-0.112,1.643,10.2195,0.00301,0.00504,-0.00579,0.0,16.673,0.17,0.0,7.065,0.036,7.065,25.43,0.0
4.71,0.1319,1.3977,9.5624,0.00082,0.00729,0.00739,0.0,16.744,0.171,0.0,7.08,0.035,7.08,25.49,0.0
4.72,-0.0565,1.1318,9.945,0.00652,0.00809,-0.00046,0.0,16.815,0.171,0.0,7.095,0.035,7.095,25.54,0.0
4.73,0.1409,1.5428,9.9864,-0.00871,-0.00175,-0.00328,0.0,16.886,0.172,0.0,7.11,0.035,7.11,25.6,0.0
4.74,0.0588,1.5818,9.7217,-0.00062,0.00214,-0.00509,0.0,16.957,0.172,0.0,7.125,0.035,7.125,25.65,0.0
4.75,-0.0074,1.6671,9.7602,-0.00139,-0.00753,-0.00432,0.0,17.029,0.172,0.0,7.14,0.035,7.14,25.7,0.0
4.76,0.219,1.5796,9.3544,0.00206,-0.0008,0.00291,0.0,17.1,0.173,0.0,7.155,0.034,7.155,25.76,0.0
4.77,-0.1935,1.3596,9.9485,-0.0031,-0.00558,-0.00741,0.0,17.172,0.173,0.0,7.17,0.034,7.17,25.81,0.0
4.78,0.1658,1.7746,9.805,0.00306,-0.003,0.00323,0.0,17.244,0.173,0.0,7.185,0.034,7.185,25.87,0.0
4.79,-0.412,1.5033,9.7763,-0.00348,0.00912,0.00355,0.0,17.316,0.174,0.0,7.2,0.034,7.2,25.92,0.0
4.8,-0.4045,1.2985,9.9324,-0.0144,-0.0015,0.00668,0.0,17.388,0.174,0.0,7.215,0.034,7.215,25.97,0.0
4.81,0.0543,1.5208,9.8737,0.00314,-0.00115,-0.0078,0.0,17.46,0.174,0.0,7.23,0.034,7.23,26.03,0.0
4.82,0.2201,1.4066,10.1179,0.00584,-0.002,-0.00269,0.0,17.533,0.175,0.0,7.245,0.033,7.245,26.08,0.0
4.83,0.0515,1.2565,10.2665,0.00577,-0.00733,0.00676,0.0,17.605,0.175,0.0,7.26,0.033,7.26,26.14,0.0
4.84,0.3263,1.357,9.3007,-0.00081,0.00132,0.0021,0.0,17.678,0.175,0.0,7.275,0.033,7.275,26.19,0.0
4.85,0.0602,1.3227,9.9914,-0.00238,-0.00274,-0.00172,0.0,17.751,0.176,0.0,7.29,0.033,7.29,26.24,0.0
4.86,0.3764,1.6129,9.8262,0.00406,-0.00738,-0.00062,0.0,17.824,0.176,0.0,7.305,0.033,7.305,26.3,0.0
4.87,-0.2488,1.421,9.5117,0.00622,-0.00161,0.00065,0.0,17.897,0.176,0.0,7.32,0.032,7.32,26.35,0.0
4.88,0.2434,1.6036,9.9286,0.00252,-0.00687,-0.01066,0.0,17.971,0.177,0.0,7.335,0.032,7.335,26.41,0.0
4.89,0.2105,1.6489,9.9998,-0.00661,0.00062,0.00342,0.0,18.044,0.177,0.0,7.35,0.032,7.35,26.46,0.0
4.9,0.2984,1.6532,9.6762,-0.00197,0.00073,-0.00948,0.0,18.118,0.177,0.0,7.365,0.032,7.365,26.51,0.0
4.91,-0.1956,1.9207,9.8161,-0.00438,-0.00448,0.00843,0.0,18.192,0.177,0.0,7.38,0.032,7.38,26.57,0.0
4.92,-0.1011,1.4889,9.6491,0.00055,-0.00015,-0.00337,0.0,18.266,0.178,0.0,7.395,0.031,7.395,26.62,0.0
4.93,-0.4594,1.8463,9.7117,-0.00377,0.00527,0.0064,0.0,18.34,0.178,0.0,7.41,0.031,7.41,26.68,0.0
4.94,0.1301,1.4116,9.6179,-0.0006,0.01147,-0.00281,0.0,18.414,0.178,0.0,7.425,0.031,7.425,26.73,0.0
4.95,0.2149,1.3629,9.443,-0.00224,-0.00837,0.00138,0.0,18.488,0.179,0.0,7.44,0.031,7.44,26.78,0.0
4.96,0.1881,1.5284,9.1167,-0.00758,-0.004,0.00765,0.0,18.563,0.179,0.0,7.455,0.031,7.455,26.84,0.0
4.97,0.2803,1.5219,9.8247,0.00186,-0.0072,-0.00137,0.0,18.638,0.179,0.0,7.47,0.031,7.47,26.89,0.0
4.98,0.0534,1.3343,9.6481,0.00046,0.00565,0.01119,0.0,18.712,0.18,0.0,7.485,0.03,7.485,26.95,0.0
4.99,-0.2903,1.4516,9.7544,0.0043,0.00618,-0.00449,0.0,18.787,0.18,0.0,7.5,0.03,7.5,27.0,0.0
5.0,-0.3664,1.5139,10.0856,0.0022,0.00954,0.00654,0.0,18.863,0.18,0.0,7.515,0.03,7.515,27.05,0.0
5.01,0.0502,1.5077,9.5256,-0.00705,0.00671,0.00224,0.0,18.938,0.181,0.0,7.53,0.03,7.53,27.11,0.0
5.02,-0.2493,1.179,9.8891,-0.00242,-0.00257,-0.00228,0.0,19.013,0.181,0.0,7.545,0.03,7.545,27.16,0.0
5.03,0.061,1.6777,9.5261,0.00124,0.00456,-0.00015,0.0,19.089,0.181,0.0,7.56,0.029,7.56,27.22,0.0
5.04,0.1807,1.1616,9.6403,0.00682,-0.00236,0.00168,0.0,19.165,0.181,0.0,7.575,0.029,7.575,27.27,0.0
5.05,-0.0229,1.3234,10.3751,-0.00022,-0.00768,-0.00407,0.0,19.241,0.182,0.0,7.59,0.029,7.59,27.32,0.0
5.06,-0.2065,1.3087,10.1209,-0.00174,-0.00158,0.00115,0.0,19.317,0.182,0.0,7.605,0.029,7.605,27.38,0.0
5.07,-0.1869,1.3897,9.9346,0.00517,0.0064,0.00068,0.0,19.393,0.182,0.0,7.62,0.028,7.62,27.43,0.0
5.08,-0.4595,1.087,10.1909,-0.00216,-0.00595,-0.00208,0.0,19.469,0.183,0.0,7.635,0.028,7.635,27.49,0.0
5.09,-0.2502,1.519,10.2587,0.0057,0.00212,-0.00201,0.0,19.546,0.183,0.0,7.65,0.028,7.65,27.54,0.0
5.1,-0.1865,1.4066,9.5474,0.0022,0.00228,0.00408,0.0,19.622,0.183,0.0,7.665,0.028,7.665,27.59,0.0
5.11,0.2726,1.6132,10.492,-0.0099,-0.00026,-0.00356,0.0,19.699,0.183,0.0,7.68,0.028,7.68,27.65,0.0
5.12,0.2388,1.6155,9.3102,-0.00456,-0.00421,-0.00506,0.0,19.776,0.184,0.0,7.695,0.027,7.695,27.7,0.0
5.13,-0.1552,1.6193,9.94,-0.0026,0.00318,-0.00017,0.0,19.853,0.184,0.0,7.71,0.027,7.71,27.76,0.0
5.14,-0.5804,1.1464,9.4059,-0.00844,0.00936,-0.00375,0.0,19.93,0.184,0.0,7.725,0.027,7.725,27.81,0.0
5.15,0.0149,1.3418,9.7682,0.00395,0.00251,0.00556,0.0,20.008,0.185,0.0,7.74,0.027,7.74,27.86,0.0
5.16,0.0492,1.526,9.7602,0.00058,-0.00779,-0.00649,0.0,20.085,0.185,0.0,7.755,0.027,7.755,27.92,0.0
5.17,-0.4112,1.3929,9.6805,-0.00435,-0.00044,-0.00061,0.0,20.163,0.185,0.0,7.77,0.026,7.77,27.97,0.0
5.18,-0.1608,1.476,9.7927,0.00411,0.00425,0.00437,0.0,20.241,0.185,0.0,7.785,0.026,7.785,28.03,0.0
5.19,-0.0733,1.5585,10.2727,-0.00653,-0.00414,0.00277,0.0,20.319,0.186,0.0,7.8,0.026,7.8,28.08,0.0
5.2,0.1308,1.2879,9.6135,-0.00616,0.00654,0.00383,0.0,20.397,0.186,0.0,7.815,0.026,7.815,28.13,0.0
5.21,0.1563,1.4901,9.7396,0.00234,0.0017,0.00257,0.0,20.475,0.186,0.0,7.83,0.026,7.83,28.19,0.0
5.22,-0.2436,1.65,10.0131,0.0021,-0.00071,-0.00114,0.0,20.554,0.186,0.0,7.845,0.025,7.845,28.24,0.0
5.23,-0.1108,1.5836,10.1237,0.00869,0.00958,0.00194,0.0,20.632,0.187,0.0,7.86,0.025,7.86,28.3,0.0
5.24,0.1514,1.3092,9.8935,0.00075,-0.00085,-0.00131,0.0,20.711,0.187,0.0,7.875,0.025,7.875,28.35,0.0
5.25,-0.273,1.5396,9.7657,-0.00439,0.01281,0.00918,0.0,20.79,0.187,0.0,7.89,0.025,7.89,28.4,0.0
5.26,-0.4317,1.3202,9.3833,0.00025,0.00489,-0.00011,0.0,20.869,0.187,0.0,7.905,0.024,7.905,28.46,0.0
5.27,0.0575,1.3146,10.4954,-0.00781,-0.00057,-0.00527,0.0,20.948,0.188,0.0,7.92,0.024,7.92,28.51,0.0
5.28,-0.2747,1.5789,10.3739,-0.00181,-0.00267,-0.00082,0.0,21.028,0.188,0.0,7.935,0.024,7.935,28.57,0.0
5.29,-0.0977,1.2551,10.3651,0.00476,0.00552,0.00498,0.0,21.107,0.188,0.0,7.95,0.024,7.95,28.62,0.0
5.3,0.0797,1.6218,9.2799,0.00831,0.00058,-0.00487,0.0,21.187,0.188,0.0,7.965,0.024,7.965,28.67,0.0
5.31,-0.3306,1.4715,9.7337,0.00481,0.00683,-0.00163,0.0,21.267,0.189,0.0,7.98,0.023,7.98,28.73,0.0
5.32,-0.129,1.7058,10.218,0.00821,0.0045,0.00626,0.0,21.347,0.189,0.0,7.995,0.023,7.995,28.78,0.0
5.33,0.3114,1.3752,9.4922,0.00259,-0.00354,-0.00033,0.0,21.427,0.189,0.0,8.01,0.023,8.01,28.84,0.0
5.34,-0.5223,1.2572,10.0185,-0.00326,-0.00406,0.00752,0.0,21.507,0.189,0.0,8.025,0.023,8.025,28.89,0.0
5.35,-0.1659,1.5036,9.7297,0.00098,0.0085,0.00485,0.0,21.587,0.189,0.0,8.04,0.022,8.04,28.94,0.0
5.36,-0.1465,1.6432,9.3675,0.00637,0.00102,-0.00547,0.0,21.668,0.19,0.0,8.055,0.022,8.055,29.0,0.0
5.37,-0.0779,1.6628,9.5492,0.00256,-0.00554,-0.00234,0.0,21.749,0.19,0.0,8.07,0.022,8.07,29.05,0.0
5.38,-0.1982,1.7233,10.001,-0.00074,0.00102,0.01014,0.0,21.829,0.19,0.0,8.085,0.022,8.085,29.11,0.0
5.39,0.1571,1.5707,9.6179,0.00678,0.00419,-0.0022,0.0,21.91,0.19,0.0,8.1,0.022,8.1,29.16,0.0
5.4,0.0984,1.3529,9.9456,0.00245,-0.00212,-0.00253,0.0,21.992,0.191,0.0,8.115,0.021,8.115,29.21,0.0
5.41,0.6253,1.3466,9.7346,-0.00187,0.00191,-0.0035,0.0,22.073,0.191,0.0,8.13,0.021,8.13,29.27,0.0
5.42,0.2653,1.4951,9.594,-0.00091,-0.00335,0.00057,0.0,22.154,0.191,0.0,8.145,0.021,8.145,29.32,0.0
5.43,-0.0385,1.5607,9.8425,0.00853,0.0018,0.0051,0.0,22.236,0.191,0.0,8.16,0.021,8.16,29.38,0.0
5.44,0.299,1.6849,9.9609,0.00665,0.00562,0.00418,0.0,22.318,0.191,0.0,8.175,0.02,8.175,29.43,0.0
5.45,-0.3727,1.3329,9.842,-0.0082,-0.00097,-0.00035,0.0,22.4,0.192,0.0,8.19,0.02,8.19,29.48,0.0
5.46,-0.1716,1.5356,9.8621,0.00773,0.00431,0.00331,0.0,22.482,0.192,0.0,8.205,0.02,8.205,29.54,0.0
5.47,0.1545,1.2793,9.9022,0.00368,0.00645,-0.00537,0.0,22.564,0.192,0.0,8.22,0.02,8.22,29.59,0.0
5.48,0.1609,1.524,9.5631,0.00478,0.00121,-0.00347,0.0,22.646,0.192,0.0,8.235,0.02,8.235,29.65,0.0
5.49,0.3695,1.4918,9.9808,-0.01101,0.00169,0.00427,0.0,22.729,0.192,0.0,8.25,0.019,8.25,29.7,0.0
5.5,0.0971,1.3739,9.9285,-0.00361,0.00071,-0.00127,0.0,22.811,0.193,0.0,8.265,0.019,8.265,29.75,0.0
5.51,-0.0365,1.6309,9.168,-0.00644,-0.00336,-0.00423,0.0,22.894,0.193,0.0,8.28,0.019,8.28,29.81,0.0
5.52,-0.4638,1.6954,9.7145,-0.00521,-0.00271,0.00964,0.0,22.977,0.193,0.0,8.295,0.019,8.295,29.86,0.0
5.53,0.0193,1.6608,10.2886,-0.01367,-0.00075,-0.0088,0.0,23.06,0.193,0.0,8.31,0.018,8.31,29.92,0.0
5.54,0.2487,1.233,9.2118,-0.00265,0.00166,-0.00731,0.0,23.143,0.193,0.0,8.325,0.018,8.325,29.97,0.0
5.55,-0.3204,1.7126,10.135,-0.015,-0.00998,-0.00424,0.0,23.227,0.193,0.0,8.34,0.018,8.34,30.02,0.0
5.56,0.2357,1.6524,9.7146,0.00166,0.00614,-0.00111,0.0,23.31,0.194,0.0,8.355,0.018,8.355,30.08,0.0
5.57,-0.0074,1.7139,9.4146,0.00476,-0.00988,0.0054,0.0,23.394,0.194,0.0,8.37,0.017,8.37,30.13,0.0
5.58,0.012,1.3978,10.2335,-0.00093,0.00404,0.00745,0.0,23.478,0.194,0.0,8.385,0.017,8.385,30.19,0.0
5.59,0.209,1.4937,9.2352,0.00088,0.00836,0.00024,0.0,23.562,0.194,0.0,8.4,0.017,8.4,30.24,0.0
5.6,-0.2513,1.4453,10.173,0.00121,-0.01133,-0.0076,0.0,23.646,0.194,0.0,8.415,0.017,8.415,30.29,0.0
5.61,0.0883,1.5538,9.6592,-0.00157,-0.00115,-0.00326,0.0,23.73,0.194,0.0,8.43,0.017,8.43,30.35,0.0
5.62,0.0043,1.5316,9.6154,-0.00271,-0.00846,-0.00564,0.0,23.815,0.195,0.0,8.445,0.016,8.445,30.4,0.0
5.63,-0.2159,1.5912,9.6339,2e-05,-0.01338,-0.00375,0.0,23.899,0.195,0.0,8.46,0.016,8.46,30.46,0.0
5.64,-0.4053,1.492,9.8314,0.00796,0.00645,-0.00836,0.0,23.984,0.195,0.0,8.475,0.016,8.475,30.51,0.0
5.65,0.3118,1.4146,9.4301,-0.00069,0.00378,0.00036,0.0,24.069,0.195,0.0,8.49,0.016,8.49,30.56,0.0
5.66,0.1598,1.3976,10.4307,-0.01068,0.00117,0.00715,0.0,24.154,0.195,0.0,8.505,0.015,8.505,30.62,0.0
5.67,0.1726,1.4679,9.9498,-0.0003,0.00379,-0.00035,0.0,24.239,0.195,0.0,8.52,0.015,8.52,30.67,0.0
5.68,0.1523,1.7906,10.0715,-0.00751,-0.00311,0.0013,0.0,24.325,0.196,0.0,8.535,0.015,8.535,30.73,0.0
5.69,-0.031,1.6282,9.5829,-0.00531,0.00477,-0.00583,0.0,24.41,0.196,0.0,8.55,0.015,8.55,30.78,0.0
5.7,0.1439,1.7174,9.5676,-0.00064,0.01096,0.00298,0.0,24.496,0.196,0.0,8.565,0.014,8.565,30.83,0.0
5.71,-0.4072,1.6993,9.1491,-0.00014,-0.00311,-0.0002,0.0,24.582,0.196,0.0,8.58,0.014,8.58,30.89,0.0
5.72,0.0474,1.6206,9.8203,-0.00124,-0.00227,-0.00285,0.0,24.668,0.196,0.0,8.595,0.014,8.595,30.94,0.0
5.73,0.1973,1.2948,9.9557,-0.00263,-0.00608,-0.00533,0.0,24.754,0.196,0.0,8.61,0.014,8.61,31.0,0.0
5.74,-0.0106,1.2617,9.9593,-0.00218,0.00284,-0.00073,0.0,24.84,0.196,0.0,8.625,0.013,8.625,31.05,0.0
5.75,0.0901,1.4082,10.3698,-0.00716,0.01246,-0.00356,0.0,24.926,0.197,0.0,8.64,0.013,8.64,31.1,0.0
5.76,0.2866,1.861,9.0795,0.00533,-0.00368,0.00608,0.0,25.013,0.197,0.0,8.655,0.013,8.655,31.16,0.0
5.77,-0.4827,1.565,9.9217,-0.00627,-0.00608,0.00414,0.0,25.1,0.197,0.0,8.67,0.013,8.67,31.21,0.0
5.78,0.1481,1.4221,9.7883,0.0003,-0.00426,0.00818,0.0,25.186,0.197,0.0,8.685,0.012,8.685,31.27,0.0
5.79,-0.3231,1.8111,10.096,0.00018,0.00261,0.00081,0.0,25.273,0.197,0.0,8.7,0.012,8.7,31.32,0.0
5.8,0.2388,1.9007,10.0274,-0.00118,4e-05,0.0019,0.0,25.361,0.197,0.0,8.715,0.012,8.715,31.37,0.0
5.81,0.4491,1.452,9.7896,0.00217,0.00266,-0.00476,0.0,25.448,0.197,0.0,8.73,0.012,8.73,31.43,0.0
5.82,-0.1931,1.7411,10.0462,-0.00441,0.00142,0.00621,0.0,25.535,0.197,0.0,8.745,0.011,8.745,31.48,0.0
5.83,-0.0916,1.4804,9.9421,0.0053,-0.00095,-0.00103,0.0,25.623,0.197,0.0,8.76,0.011,8.76,31.54,0.0
5.84,-0.0164,1.6538,10.427,0.00115,-0.00503,-0.00738,0.0,25.711,0.198,0.0,8.775,0.011,8.775,31.59,0.0
5.85,-0.1242,1.922,9.9868,0.00284,0.00207,-0.00049,0.0,25.799,0.198,0.0,8.79,0.011,8.79,31.64,0.0
5.86,0.1522,1.5011,10.3974,0.00169,0.00054,-0.00659,0.0,25.887,0.198,0.0,8.805,0.01,8.805,31.7,0.0
5.87,-0.0115,1.4844,9.3715,-0.00452,-0.00341,0.00088,0.0,25.975,0.198,0.0,8.82,0.01,8.82,31.75,0.0
5.88,-0.0963,1.4623,10.2128,-0.001,0.0027,-0.00012,0.0,26.063,0.198,0.0,8.835,0.01,8.835,31.81,0.0
5.89,0.137,1.3046,9.7341,-0.00446,8e-05,0.00635,0.0,26.152,0.198,0.0,8.85,0.01,8.85,31.86,0.0
5.9,0.5672,1.3486,9.939,-0.00457,-0.00088,-0.00503,0.0,26.24,0.198,0.0,8.865,0.01,8.865,31.91,0.0
5.91,0.17,1.3614,10.0508,-0.00549,0.00625,0.01404,0.0,26.329,0.198,0.0,8.88,0.009,8.88,31.97,0.0
5.92,-0.3442,1.6225,9.5094,-0.00771,0.0009,0.00672,0.0,26.418,0.198,0.0,8.895,0.009,8.895,32.02,0.0
5.93,-0.2408,1.2768,9.4001,0.01032,0.00527,-0.00284,0.0,26.507,0.198,0.0,8.91,0.009,8.91,32.08,0.0
5.94,-0.212,1.4982,10.3487,0.00121,0.00034,-0.00319,0.0,26.596,0.199,0.0,8.925,0.009,8.925,32.13,0.0
5.95,0.2505,1.5359,10.0655,-0.00067,-0.00232,0.0027,0.0,26.686,0.199,0.0,8.94,0.008,8.94,32.18,0.0
5.96,0.109,1.4114,9.0533,0.00149,0.00094,0.00109,0.0,26.775,0.199,0.0,8.955,0.008,8.955,32.24,0.0
5.97,-0.1213,1.5623,10.1679,-0.00054,0.00219,-0.0011,0.0,26.865,0.199,0.0,8.97,0.008,8.97,32.29,0.0
5.98,-0.0743,1.3966,9.4177,0.00695,0.00107,0.00472,0.0,26.955,0.199,0.0,8.985,0.008,8.985,32.35,0.0
5.99,-0.2647,1.587,9.9885,0.0026,-0.00328,-0.00268,0.0,27.045,0.199,0.0,9.0,0.007,9.0,32.4,0.0
6.0,-0.0496,1.4594,9.6427,0.00746,0.00729,0.00538,0.0,27.135,0.199,0.0,9.015,0.007,9.015,32.45,0.0
6.01,0.1196,1.393,9.6805,0.0039,-0.00305,0.00196,0.0,27.225,0.199,0.0,9.03,0.007,9.03,32.51,0.0
6.02,0.1041,1.5611,10.0165,0.00464,-0.0074,0.00748,0.0,27.316,0.199,0.0,9.045,0.007,9.045,32.56,0.0
6.03,0.0609,1.0798,9.9961,-0.00661,-0.00669,-0.00712,0.0,27.406,0.199,0.0,9.06,0.006,9.06,32.62,0.0
6.04,0.2046,1.7838,9.8257,0.00174,0.00498,-0.0011,0.0,27.497,0.199,0.0,9.075,0.006,9.075,32.67,0.0
6.05,-0.0764,1.495,9.709,0.00079,0.00097,-0.00648,0.0,27.588,0.199,0.0,9.09,0.006,9.09,32.72,0.0
6.06,-0.1327,1.8204,9.6499,-0.00174,-0.00815,-0.00865,0.0,27.679,0.199,0.0,9.105,0.006,9.105,32.78,0.0
6.07,-0.4687,1.5869,9.2624,0.0025,-0.00795,-0.00507,0.0,27.77,0.199,0.0,9.12,0.005,9.12,32.83,0.0
6.08,0.3092,1.6366,9.3992,0.00261,-0.00125,0.00091,0.0,27.862,0.199,0.0,9.135,0.005,9.135,32.89,0.0
6.09,-0.0601,1.5328,9.7677,0.00601,0.00966,-0.00364,0.0,27.953,0.2,0.0,9.15,0.005,9.15,32.94,0.0
6.1,0.1711,1.3877,9.9414,-0.00296,0.00289,-0.00058,0.0,28.045,0.2,0.0,9.165,0.005,9.165,32.99,0.0
6.11,0.0532,1.5574,10.0229,-0.0034,0.00199,0.00038,0.0,28.137,0.2,0.0,9.18,0.004,9.18,33.05,0.0
6.12,-0.3225,1.7132,9.7819,0.00346,0.00513,-0.00641,0.0,28.229,0.2,0.0,9.195,0.004,9.195,33.1,0.0
6.13,0.3479,1.3152,10.0696,-0.00027,0.00512,-0.00106,0.0,28.321,0.2,0.0,9.21,0.004,9.21,33.16,0.0
6.14,-0.5009,0.9834,10.0408,0.00103,-0.00557,-0.01054,0.0,28.413,0.2,0.0,9.225,0.004,9.225,33.21,0.0
6.15,-0.0313,1.307,9.7034,-0.00179,0.00153,5e-05,0.0,28.505,0.2,0.0,9.24,0.003,9.24,33.26,0.0
6.16,0.0261,1.2225,9.5908,0.00289,0.00334,0.00713,0.0,28.598,0.2,0.0,9.255,0.003,9.255,33.32,0.0
6.17,-0.0822,1.489,10.0369,0.00772,-0.00407,0.00769,0.0,28.691,0.2,0.0,9.27,0.003,9.27,33.37,0.0
6.18,0.2682,1.4672,10.3149,0.00486,0.00729,0.00254,0.0,28.783,0.2,0.0,9.285,0.003,9.285,33.43,0.0
6.19,-0.0974,1.6633,10.0025,-0.00995,-0.01018,0.00456,0.0,28.876,0.2,0.0,9.3,0.002,9.3,33.48,0.0
6.2,-0.0838,1.4671,9.7196,0.00602,0.00245,-0.00499,0.0,28.97,0.2,0.0,9.315,0.002,9.315,33.53,0.0
6.21,0.1,1.2376,9.8621,0.014,-0.00647,-0.00108,0.0,29.063,0.2,0.0,9.33,0.002,9.33,33.59,0.0
6.22,0.008,1.841,10.3567,0.00159,-0.00179,0.00443,0.0,29.156,0.2,0.0,9.345,0.002,9.345,33.64,0.0
6.23,-0.1759,1.6015,10.5606,0.00162,0.00153,-0.00772,0.0,29.25,0.2,0.0,9.36,0.001,9.36,33.7,0.0
6.24,0.1525,1.0356,9.7259,-0.00116,-0.00561,0.00098,0.0,29.344,0.2,0.0,9.375,0.001,9.375,33.75,0.0
6.25,-0.2681,1.5278,9.5872,-0.00353,-0.00477,0.00248,0.0,29.438,0.2,0.0,9.39,0.001,9.39,33.8,0.0
6.26,-0.4533,1.4825,9.7507,-0.00065,-0.00098,-0.0027,0.0,29.532,0.2,0.0,9.405,0.001,9.405,33.86,0.0
6.27,-0.0366,1.8946,9.9596,0.00042,-0.00333,0.00055,0.0,29.626,0.2,0.0,9.42,0.0,9.42,33.91,0.0
6.28,-0.3598,1.645,9.3829,0.00059,-0.00189,0.00553,0.0,29.72,0.2,0.0,9.435,0.0,9.435,33.97,0.0
6.29,-0.173,1.0405,9.9331,-0.00323,-0.00141,0.00861,0.0,29.815,0.2,0.0,9.45,-0.0,9.45,34.02,0.0
6.3,0.0308,0.9825,9.8473,-0.00312,-0.0096,0.01247,0.0,29.909,0.2,0.0,9.465,-0.0,9.465,34.07,0.0
6.31,0.1866,1.8375,9.869,-0.00353,-0.00673,-0.00684,0.0,30.004,0.2,0.0,9.48,-0.001,9.48,34.13,0.0
6.32,-0.1303,1.143,9.6196,0.00675,0.00783,0.00381,0.0,30.099,0.2,0.0,9.495,-0.001,9.495,34.18,0.0
6.33,0.0309,1.1871,10.1287,-0.00213,0.00333,0.00988,0.0,30.194,0.2,0.0,9.51,-0.001,9.51,34.24,0.0
6.34,0.3515,1.3033,9.6874,-0.00127,0.00075,-0.00668,0.0,30.289,0.2,0.0,9.525,-0.001,9.525,34.29,0.0
6.35,-0.0131,1.2971,9.73,0.00388,0.00402,-0.00911,0.0,30.385,0.2,0.0,9.54,-0.002,9.54,34.34,0.0
6.36,0.4038,1.6817,9.5706,-0.00353,-0.00386,0.00246,0.0,30.48,0.2,0.0,9.555,-0.002,9.555,34.4,0.0
6.37,0.2378,1.2583,9.9928,0.0019,-0.00915,-0.00304,0.0,30.576,0.2,0.0,9.57,-0.002,9.57,34.45,0.0
6.38,-0.1974,1.7031,10.171,0.00296,0.00058,0.00775,0.0,30.672,0.2,0.0,9.585,-0.002,9.585,34.51,0.0
6.39,0.0115,1.506,10.3077,-0.00175,0.00523,0.00301,0.0,30.768,0.2,0.0,9.6,-0.003,9.6,34.56,0.0
6.4,0.4252,1.3784,9.1952,-0.00455,-0.00343,-0.00416,0.0,30.864,0.2,0.0,9.615,-0.003,9.615,34.61,0.0
6.41,0.0486,1.649,10.2872,0.00452,0.00734,0.00105,0.0,30.96,0.2,0.0,9.63,-0.003,9.63,34.67,0.0
6.42,0.3439,1.7719,10.4347,0.00796,0.00488,0.01031,0.0,31.057,0.2,0.0,9.645,-0.003,9.645,34.72,0.0
6.43,-0.2052,1.5774,10.0166,0.00444,0.00161,0.00061,0.0,31.153,0.2,0.0,9.66,-0.004,9.66,34.78,0.0
6.44,-0.2997,1.2214,10.2675,0.00224,-0.00085,-0.00179,0.0,31.25,0.2,0.0,9.675,-0.004,9.675,34.83,0.0
6.45,-0.1223,1.1802,10.0657,0.00154,0.00253,-0.00547,0.0,31.347,0.2,0.0,9.69,-0.004,9.69,34.88,0.0
6.46,0.1152,1.4894,9.5896,0.00503,0.00587,0.00557,0.0,31.444,0.2,0.0,9.705,-0.004,9.705,34.94,0.0
6.47,-0.1415,1.2365,10.0806,0.00182,0.0058,0.00608,0.0,31.541,0.2,0.0,9.72,-0.005,9.72,34.99,0.0
6.48,-0.1625,1.1621,9.7061,-0.00112,0.00063,-0.00951,0.0,31.639,0.199,0.0,9.735,-0.005,9.735,35.05,0.0
6.49,0.1099,1.7848,9.5158,0.003,0.00051,-0.00313,0.0,31.736,0.199,0.0,9.75,-0.005,9.75,35.1,0.0
6.5,0.2937,1.3786,10.0314,-0.00904,0.0007,0.00607,0.0,31.834,0.199,0.0,9.765,-0.005,9.765,35.15,0.0
6.51,0.29,1.5376,10.1346,1e-05,-0.00562,-0.00618,0.0,31.932,0.199,0.0,9.78,-0.006,9.78,35.21,0.0
6.52,0.146,1.3617,9.5582,-0.0028,0.00632,0.00225,0.0,32.03,0.199,0.0,9.795,-0.006,9.795,35.26,0.0
6.53,0.0315,1.0286,9.6083,-0.00415,-0.01249,0.00437,0.0,32.128,0.199,0.0,9.81,-0.006,9.81,35.32,0.0
6.54,-0.0198,1.4418,9.8926,0.00739,-0.00013,-0.0052,0.0,32.226,0.199,0.0,9.825,-0.006,9.825,35.37,0.0
6.55,-0.3206,1.5591,10.0598,-0.00566,-0.00837,-0.00463,0.0,32.324,0.199,0.0,9.84,-0.007,9.84,35.42,0.0
6.56,-0.0307,1.4212,9.7377,-0.00402,-0.00283,-0.00471,0.0,32.423,0.199,0.0,9.855,-0.007,9.855,35.48,0.0
6.57,-0.0911,1.4858,10.6375,0.00339,-0.00722,0.005,0.0,32.522,0.199,0.0,9.87,-0.007,9.87,35.53,0.0
6.58,0.2166,1.2472,9.8914,0.00073,0.00797,-0.00624,0.0,32.62,0.199,0.0,9.885,-0.007,9.885,35.59,0.0
6.59,0.2285,1.7131,9.935,-0.00387,0.00237,-5e-05,0.0,32.719,0.199,0.0,9.9,-0.008,9.9,35.64,0.0
6.6,0.2452,1.3879,10.1004,-0.00118,0.00604,-0.00742,0.0,32.819,0.199,0.0,9.915,-0.008,9.915,35.69,0.0
6.61,0.2923,1.655,9.4357,-0.00694,0.0072,-0.00073,0.0,32.918,0.199,0.0,9.93,-0.008,9.93,35.75,0.0
6.62,-0.1487,1.2039,9.4504,0.00025,-0.00273,-0.00868,0.0,33.017,0.199,0.0,9.945,-0.008,9.945,35.8,0.0
6.63,-0.1011,1.5292,10.1894,0.00096,0.00515,-0.00173,0.0,33.117,0.198,0.0,9.96,-0.009,9.96,35.86,0.0
6.64,-0.0777,1.5624,9.7169,0.00488,0.00171,0.00297,0.0,33.217,0.198,0.0,9.975,-0.009,9.975,35.91,0.0
6.65,0.1235,1.3051,9.5432,-0.00717,0.00905,0.00678,0.0,33.317,0.198,0.0,9.99,-0.009,9.99,35.96,0.0
6.66,-0.0099,1.4104,9.2219,-0.00658,-0.00232,0.00947,0.0,33.417,0.198,0.0,10.005,-0.009,10.005,36.02,0.0
6.67,-0.2129,1.7702,9.5275,0.0071,0.0105,-0.00855,0.0,33.517,0.198,0.0,10.02,-0.01,10.02,36.07,0.0
6.68,-0.0667,1.401,9.5187,0.00088,-0.00347,0.0005,0.0,33.617,0.198,0.0,10.035,-0.01,10.035,36.13,0.0
6.69,0.3605,1.4695,9.7493,0.0045,-0.00349,0.00324,0.0,33.718,0.198,0.0,10.05,-0.01,10.05,36.18,0.0
6.7,0.3568,1.3289,9.5279,0.00245,0.00027,-0.00478,0.0,33.818,0.198,0.0,10.065,-0.01,10.065,36.23,0.0
6.71,0.2026,1.7668,10.0953,0.0075,0.00218,0.00689,0.0,33.919,0.198,0.0,10.08,-0.011,10.08,36.29,0.0
6.72,-0.134,1.3023,10.0294,-0.00072,-0.00047,0.00306,0.0,34.02,0.198,0.0,10.095,-0.011,10.095,36.34,0.0
6.73,-0.1801,1.5112,10.4485,0.00753,0.0021,-0.0029,0.0,34.121,0.197,0.0,10.11,-0.011,10.11,36.4,0.0
6.74,-0.1266,1.5008,9.9737,0.00138,0.00514,-0.00061,0.0,34.222,0.197,0.0,10.125,-0.011,10.125,36.45,0.0
6.75,-0.1632,1.5526,9.6462,-0.0016,-0.00727,-0.00442,0.0,34.324,0.197,0.0,10.14,-0.012,10.14,36.5,0.0
6.76,-0.3277,1.038,9.65,-0.00363,0.00633,-0.00171,0.0,34.425,0.197,0.0,10.155,-0.012,10.155,36.56,0.0
6.77,0.0704,1.4297,10.0814,0.00038,-0.0034,0.00126,0.0,34.527,0.197,0.0,10.17,-0.012,10.17,36.61,0.0
6.78,0.3873,1.6695,10.1815,0.00679,-0.00119,-0.00507,0.0,34.629,0.197,0.0,10.185,-0.012,10.185,36.67,0.0
6.79,0.1161,1.3389,9.6429,-0.00144,0.00304,0.00377,0.0,34.731,0.197,0.0,10.2,-0.013,10.2,36.72,0.0
6.8,-0.2323,1.4437,9.8579,-0.00419,-0.00713,0.0006,0.0,34.833,0.197,0.0,10.215,-0.013,10.215,36.77,0.0
6.81,0.0298,1.4144,9.8002,-0.00036,0.00935,0.00291,0.0,34.935,0.196,0.0,10.23,-0.013,10.23,36.83,0.0
6.82,0.2643,1.4054,9.477,-0.00704,-0.01241,-0.00047,0.0,35.038,0.196,0.0,10.245,-0.013,10.245,36.88,0.0
6.83,0.1416,1.7062,9.3415,-0.00283,0.01041,-0.0037,0.0,35.14,0.196,0.0,10.26,-0.014,10.26,36.94,0.0
6.84,0.1164,1.396,10.2665,0.00017,-0.00569,-0.00681,0.0,35.243,0.196,0.0,10.275,-0.014,10.275,36.99,0.0
6.85,-0.0993,1.5594,9.68,-0.00227,0.00093,0.002,0.0,35.346,0.196,0.0,10.29,-0.014,10.29,37.04,0.0
6.86,0.2789,1.3267,9.6815,0.0055,0.00326,-0.00419,0.0,35.449,0.196,0.0,10.305,-0.014,10.305,37.1,0.0
6.87,0.3324,1.4544,9.6813,-0.00288,0.00115,0.0031,0.0,35.552,0.196,0.0,10.32,-0.014,10.32,37.15,0.0
6.88,-0.2965,1.5325,9.4975,0.00538,-0.00556,0.0058,0.0,35.656,0.195,0.0,10.335,-0.015,10.335,37.21,0.0
6.89,-0.612,1.5804,10.164,-0.00803,0.00498,-0.00269,0.0,35.759,0.195,0.0,10.35,-0.015,10.35,37.26,0.0
6.9,-0.0739,1.5217,9.3391,-0.00355,0.00096,0.00282,0.0,35.863,0.195,0.0,10.365,-0.015,10.365,37.31,0.0
6.91,-0.1572,1.508,9.302,-0.00055,-0.00182,0.0005,0.0,35.967,0.195,0.0,10.38,-0.015,10.38,37.37,0.0
6.92,0.4162,1.1021,10.0139,0.01196,0.00367,-0.00691,0.0,36.071,0.195,0.0,10.395,-0.016,10.395,37.42,0.0
6.93,0.4574,1.4053,9.5268,0.00385,0.00146,0.0026,0.0,36.175,0.195,0.0,10.41,-0.016,10.41,37.48,0.0
6.94,0.0265,1.3885,9.6663,0.00205,0.00494,0.00331,0.0,36.279,0.195,0.0,10.425,-0.016,10.425,37.53,0.0
6.95,-0.1657,1.5005,10.2254,0.0023,0.00489,-0.00347,0.0,36.383,0.194,0.0,10.44,-0.016,10.44,37.58,0.0
6.96,-0.1813,1.3948,10.2233,0.00409,0.00074,0.00031,0.0,36.488,0.194,0.0,10.455,-0.017,10.455,37.64,0.0
6.97,-0.0135,1.5573,10.2401,0.00222,-0.00407,-0.00513,0.0,36.593,0.194,0.0,10.47,-0.017,10.47,37.69,0.0
6.98,-0.0048,1.3932,9.3887,-0.00215,0.00407,-0.00418,0.0,36.697,0.194,0.0,10.485,-0.017,10.485,37.75,0.0
6.99,0.2468,1.4508,9.7331,0.00617,-0.00496,0.00209,0.0,36.802,0.194,0.0,10.5,-0.017,10.5,37.8,0.0
7.0,-0.2057,1.8995,9.2322,0.00303,0.00783,-0.00164,0.0,36.908,0.194,0.0,10.515,-0.018,10.515,37.85,0.0
7.01,0.0292,1.7129,9.3293,0.0004,0.00468,0.00469,0.0,37.013,0.193,0.0,10.53,-0.018,10.53,37.91,0.0
7.02,-0.2206,1.2929,9.7798,-0.0086,-0.00074,-0.00195,0.0,37.118,0.193,0.0,10.545,-0.018,10.545,37.96,0.0
7.03,-0.0535,1.373,9.7006,-0.00859,-0.00629,-0.01425,0.0,37.224,0.193,0.0,10.56,-0.018,10.56,38.02,0.0
7.04,0.212,1.4929,9.4835,0.00442,-2e-05,-0.00833,0.0,37.33,0.193,0.0,10.575,-0.018,10.575,38.07,0.0
7.05,-0.0233,1.5074,9.8816,0.00304,0.00427,-0.00058,0.0,37.436,0.193,0.0,10.59,-0.019,10.59,38.12,0.0
7.06,-0.1489,1.4616,9.6112,-0.00355,0.00234,0.00072,0.0,37.542,0.192,0.0,10.605,-0.019,10.605,38.18,0.0
7.07,-0.0635,1.6032,9.3485,0.00198,0.00304,0.00075,0.0,37.648,0.192,0.0,10.62,-0.019,10.62,38.23,0.0
7.08,0.2587,1.7262,9.5644,0.00358,0.0061,0.00461,0.0,37.754,0.192,0.0,10.635,-0.019,10.635,38.29,0.0
7.09,0.245,1.7026,10.5166,0.00719,-0.01078,0.0036,0.0,37.861,0.192,0.0,10.65,-0.02,10.65,38.34,0.0
7.1,-0.2733,1.4888,9.4701,0.00419,0.00068,0.00445,0.0,37.967,0.192,0.0,10.665,-0.02,10.665,38.39,0.0
7.11,0.0379,1.4943,9.37,0.00072,-0.00072,0.00852,0.0,38.074,0.191,0.0,10.68,-0.02,10.68,38.45,0.0
7.12,-0.4071,1.2944,9.6397,-0.00255,0.00521,0.0015,0.0,38.181,0.191,0.0,10.695,-0.02,10.695,38.5,0.0
7.13,-0.5083,1.2591,8.7227,0.00509,0.00495,-0.00018,0.0,38.288,0.191,0.0,10.71,-0.021,10.71,38.56,0.0
7.14,0.0208,1.6515,9.7262,0.0042,-0.00019,-0.00255,0.0,38.395,0.191,0.0,10.725,-0.021,10.725,38.61,0.0
7.15,0.2613,1.5087,9.1789,0.00402,-0.00644,-0.0013,0.0,38.503,0.191,0.0,10.74,-0.021,10.74,38.66,0.0
7.16,-0.2928,1.5676,9.9924,-0.00648,0.00367,-0.00246,0.0,38.61,0.19,0.0,10.755,-0.021,10.755,38.72,0.0
7.17,0.1865,1.6261,9.459,-0.0019,-0.00292,0.0014,0.0,38.718,0.19,0.0,10.77,-0.021,10.77,38.77,0.0
7.18,0.0404,1.6905,9.0705,-0.00494,0.00479,0.00768,0.0,38.826,0.19,0.0,10.785,-0.022,10.785,38.83,0.0
7.19,0.2553,1.4915,9.3086,-0.00328,0.0004,-0.00247,0.0,38.934,0.19,0.0,10.8,-0.022,10.8,38.88,0.0
7.2,0.0883,1.3466,9.9116,0.00285,0.00592,0.00157,0.0,39.042,0.19,0.0,10.815,-0.022,10.815,38.93,0.0
7.21,-0.1132,1.1174,9.7053,-0.00759,-0.00433,-0.00892,0.0,39.15,0.189,0.0,10.83,-0.022,10.83,38.99,0.0
7.22,-0.0683,1.3929,9.6485,0.00134,-0.01088,-0.00452,0.0,39.259,0.189,0.0,10.845,-0.023,10.845,39.04,0.0
7.23,-0.3242,1.8445,9.9409,-0.00428,0.00784,-0.00646,0.0,39.367,0.189,0.0,10.86,-0.023,10.86,39.1,0.0
7.24,-0.3307,0.9912,9.7982,0.00251,0.00017,-0.00347,0.0,39.476,0.189,0.0,10.875,-0.023,10.875,39.15,0.0
7.25,-0.0951,1.3762,9.9734,0.00306,0.00358,-0.00695,0.0,39.585,0.188,0.0,10.89,-0.023,10.89,39.2,0.0
7.26,-0.0381,1.515,9.5037,0.00754,-0.00194,-0.00458,0.0,39.694,0.188,0.0,10.905,-0.023,10.905,39.26,0.0
7.27,-0.0909,1.4156,8.8528,-0.0038,-0.00073,-0.00753,0.0,39.803,0.188,0.0,10.92,-0.024,10.92,39.31,0.0
7.28,-0.0256,1.4613,9.9294,-0.00114,0.00237,0.00028,0.0,39.913,0.188,0.0,10.935,-0.024,10.935,39.37,0.0
7.29,-0.3905,2.1092,9.7783,0.00028,-0.00911,-0.00084,0.0,40.022,0.187,0.0,10.95,-0.024,10.95,39.42,0.0
7.3,0.1385,1.5069,10.0764,-0.00947,0.00364,0.0031,0.0,40.132,0.187,0.0,10.965,-0.024,10.965,39.47,0.0
7.31,0.1725,1.4616,9.5073,-0.00148,0.00905,-0.00117,0.0,40.242,0.187,0.0,10.98,-0.025,10.98,39.53,0.0
7.32,-0.2739,1.4666,9.6118,0.00147,-0.00379,-0.00042,0.0,40.352,0.187,0.0,10.995,-0.025,10.995,39.58,0.0
7.33,-0.1155,1.3902,9.4266,-0.00357,0.00767,0.00069,0.0,40.462,0.186,0.0,11.01,-0.025,11.01,39.64,0.0
7.34,0.4861,1.416,9.9006,0.00241,-0.01099,-0.00501,0.0,40.572,0.186,0.0,11.025,-0.025,11.025,39.69,0.0
7.35,-0.1517,1.8406,9.4658,0.00671,0.00025,0.00032,0.0,40.682,0.186,0.0,11.04,-0.025,11.04,39.74,0.0
7.36,-0.1253,1.838,10.2755,0.00903,-0.00534,0.00044,0.0,40.793,0.186,0.0,11.055,-0.026,11.055,39.8,0.0
7.37,0.1079,1.4714,9.6925,-0.0059,0.00557,-0.00219,0.0,40.904,0.185,0.0,11.07,-0.026,11.07,39.85,0.0
7.38,0.0942,1.2982,9.5082,0.00507,-0.01084,0.00144,0.0,41.014,0.185,0.0,11.085,-0.026,11.085,39.91,0.0
7.39,-0.0473,1.84,9.9081,0.00704,-0.00808,-0.00105,0.0,41.125,0.185,0.0,11.1,-0.026,11.1,39.96,0.0
7.4,0.3318,1.4641,9.399,0.00387,0.00028,-0.00439,0.0,41.237,0.185,0.0,11.115,-0.027,11.115,40.01,0.0
7.41,0.4327,1.8433,10.0915,-0.00181,-0.00451,0.0029,0.0,41.348,0.184,0.0,11.13,-0.027,11.13,40.07,0.0
7.42,0.1152,1.5814,9.0348,0.00408,-0.00368,0.00645,0.0,41.459,0.184,0.0,11.145,-0.027,11.145,40.12,0.0
7.43,0.2035,1.7008,9.9206,0.00376,0.01025,-0.00258,0.0,41.571,0.184,0.0,11.16,-0.027,11.16,40.18,0.0
7.44,0.149,1.0004,10.173,-0.00603,0.00529,-0.00411,0.0,41.683,0.184,0.0,11.175,-0.027,11.175,40.23,0.0
7.45,0.0571,1.4673,9.7611,0.00182,-0.00355,0.00248,0.0,41.795,0.183,0.0,11.19,-0.028,11.19,40.28,0.0
7.46,-0.2392,1.5238,10.0015,-0.00051,-0.00292,0.00268,0.0,41.907,0.183,0.0,11.205,-0.028,11.205,40.34,0.0
7.47,0.0528,1.6372,10.1263,-0.00297,0.00711,0.00381,0.0,42.019,0.183,0.0,11.22,-0.028,11.22,40.39,0.0
7.48,0.4647,1.4325,10.5217,-0.00128,-0.00529,-0.00226,0.0,42.131,0.182,0.0,11.235,-0.028,11.235,40.45,0.0
7.49,0.1322,1.3735,10.0322,0.00502,-0.00041,-0.00986,0.0,42.244,0.182,0.0,11.25,-0.028,11.25,40.5,0.0
7.5,-0.0736,1.5558,9.7413,0.00113,-0.00197,0.00556,0.0,42.356,0.182,0.0,11.265,-0.029,11.265,40.55,0.0
7.51,0.4332,1.5946,10.0848,-0.00729,0.0006,0.00635,0.0,42.469,0.182,0.0,11.28,-0.029,11.28,40.61,0.0
7.52,-0.345,2.0438,9.3263,-0.00165,-0.00561,0.00532,0.0,42.582,0.181,0.0,11.295,-0.029,11.295,40.66,0.0
7.53,0.1381,1.5841,9.6237,0.01046,0.0034,0.00525,0.0,42.695,0.181,0.0,11.31,-0.029,11.31,40.72,0.0
7.54,0.0571,1.2812,9.8852,-0.00112,0.00271,-0.00082,0.0,42.808,0.181,0.0,11.325,-0.029,11.325,40.77,0.0
7.55,0.2087,1.5206,10.1493,0.00489,0.00323,0.01578,0.0,42.922,0.18,0.0,11.34,-0.03,11.34,40.82,0.0
7.56,-0.1287,1.7089,10.151,-0.00457,-0.00062,-0.00446,0.0,43.035,0.18,0.0,11.355,-0.03,11.355,40.88,0.0
7.57,-0.4728,1.5812,9.9969,-0.00131,-0.00049,-0.00167,0.0,43.149,0.18,0.0,11.37,-0.03,11.37,40.93,0.0
7.58,0.0359,1.4418,10.2445,0.00025,-0.00078,-0.0023,0.0,43.263,0.18,0.0,11.385,-0.03,11.385,40.99,0.0
7.59,0.0873,1.2617,9.7313,-0.00235,-0.01044,0.00463,0.0,43.377,0.179,0.0,11.4,-0.03,11.4,41.04,0.0
7.6,0.0216,1.5911,9.6899,0.00751,0.00325,-0.00293,0.0,43.491,0.179,0.0,11.415,-0.031,11.415,41.09,0.0
7.61,-0.2571,1.866,10.1505,0.00257,0.00373,0.0037,0.0,43.605,0.179,0.0,11.43,-0.031,11.43,41.15,0.0
7.62,0.2552,1.2216,10.0967,0.00175,-0.00131,-0.00306,0.0,43.72,0.178,0.0,11.445,-0.031,11.445,41.2,0.0
7.63,0.0603,1.4344,9.6096,0.00033,-0.00044,0.00136,0.0,43.834,0.178,0.0,11.46,-0.031,11.46,41.26,0.0
7.64,0.1467,1.2703,10.1631,0.00237,0.0047,-0.00791,0.0,43.949,0.178,0.0,11.475,-0.031,11.475,41.31,0.0
7.65,0.1555,1.4411,9.8419,-0.00203,-0.00089,-3e-05,0.0,44.064,0.177,0.0,11.49,-0.032,11.49,41.36,0.0
7.66,0.1634,1.1669,10.0179,0.00148,-0.00141,-0.00277,0.0,44.179,0.177,0.0,11.505,-0.032,11.505,41.42,0.0
7.67,0.3831,1.4663,9.8148,-0.00401,-0.00039,0.0037,0.0,44.294,0.177,0.0,11.52,-0.032,11.52,41.47,0.0
7.68,0.111,1.4912,9.3923,0.0048,-0.00633,0.006,0.0,44.41,0.176,0.0,11.535,-0.032,11.535,41.53,0.0
7.69,0.0667,1.4657,9.815,-0.0127,0.00521,-0.00215,0.0,44.525,0.176,0.0,11.55,-0.032,11.55,41.58,0.0
7.7,-0.3588,1.6751,9.8762,-0.00095,-0.0064,0.00527,0.0,44.641,0.176,0.0,11.565,-0.033,11.565,41.63,0.0
7.71,0.0559,1.1729,9.4762,-0.00078,0.01046,0.00389,0.0,44.757,0.175,0.0,11.58,-0.033,11.58,41.69,0.0
7.72,0.0271,1.6417,9.953,-0.0004,0.00895,0.00485,0.0,44.873,0.175,0.0,11.595,-0.033,11.595,41.74,0.0
7.73,-0.1308,1.6701,9.6326,-0.00065,-0.00404,-0.00698,0.0,44.989,0.175,0.0,11.61,-0.033,11.61,41.8,0.0
7.74,0.031,1.1703,9.8753,-0.00067,0.00506,0.00248,0.0,45.105,0.174,0.0,11.625,-0.033,11.625,41.85,0.0
7.75,-0.1883,1.2479,10.1483,-0.00101,0.00266,-0.00228,0.0,45.221,0.174,0.0,11.64,-0.033,11.64,41.9,0.0
7.76,0.0105,1.4957,9.8724,-0.01345,-0.00274,-0.00237,0.0,45.338,0.174,0.0,11.655,-0.034,11.655,41.96,0.0
7.77,-0.0246,1.5315,10.1165,0.00442,0.00166,-0.00055,0.0,45.455,0.173,0.0,11.67,-0.034,11.67,42.01,0.0
7.78,-0.3657,1.5492,9.9336,-0.0018,0.00264,-0.00481,0.0,45.571,0.173,0.0,11.685,-0.034,11.685,42.07,0.0
7.79,-0.3059,1.1711,9.9152,0.00182,-0.00563,0.0036,0.0,45.688,0.173,0.0,11.7,-0.034,11.7,42.12,0.0
7.8,0.2113,1.5758,9.8399,0.00179,-0.00027,-0.00654,0.0,45.806,0.172,0.0,11.715,-0.034,11.715,42.17,0.0
7.81,0.2738,1.5513,9.3478,-0.0027,-0.00764,0.00042,0.0,45.923,0.172,0.0,11.73,-0.035,11.73,42.23,0.0
7.82,-0.2577,1.6954,9.7262,-0.00229,-0.00669,0.01139,0.0,46.04,0.172,0.0,11.745,-0.035,11.745,42.28,0.0
7.83,-0.0253,1.5046,9.8862,-0.00292,-0.0116,0.00839,0.0,46.158,0.171,0.0,11.76,-0.035,11.76,42.34,0.0
7.84,-0.0353,1.5221,10.3184,0.0005,0.00353,0.0002,0.0,46.276,0.171,0.0,11.775,-0.035,11.775,42.39,0.0
7.85,-0.1961,1.2334,10.0279,0.00155,-0.00309,0.00182,0.0,46.394,0.171,0.0,11.79,-0.035,11.79,42.44,0.0
7.86,-0.1309,1.5208,10.1453,0.01073,-0.00319,-0.00255,0.0,46.512,0.17,0.0,11.805,-0.035,11.805,42.5,0.0
7.87,0.0819,1.5585,9.8626,0.00238,-4e-05,-0.00094,0.0,46.63,0.17,0.0,11.82,-0.036,11.82,42.55,0.0
7.88,-0.1508,1.7098,9.395,-0.00022,-0.00701,-0.00548,0.0,46.748,0.17,0.0,11.835,-0.036,11.835,42.61,0.0
7.89,0.2438,1.749,10.0894,0.00105,-0.0047,0.00013,0.0,46.867,0.169,0.0,11.85,-0.036,11.85,42.66,0.0
7.9,0.2149,1.4066,10.1676,0.00107,0.0039,-0.00604,0.0,46.985,0.169,0.0,11.865,-0.036,11.865,42.71,0.0
7.91,0.1441,1.495,9.492,0.00052,0.00402,0.00046,0.0,47.104,0.168,0.0,11.88,-0.036,11.88,42.77,0.0
7.92,-0.3844,1.416,9.0244,-0.00575,-0.00409,-0.00154,0.0,47.223,0.168,0.0,11.895,-0.037,11.895,42.82,0.0
7.93,0.4899,1.7207,9.7947,-0.00093,0.00945,0.00333,0.0,47.342,0.168,0.0,11.91,-0.037,11.91,42.88,0.0
7.94,-0.2185,1.5732,9.4989,0.00227,-0.00016,-0.00594,0.0,47.461,0.167,0.0,11.925,-0.037,11.925,42.93,0.0
7.95,0.397,1.732,9.8785,0.00079,0.01035,0.00301,0.0,47.581,0.167,0.0,11.94,-0.037,11.94,42.98,0.0
7.96,-0.1051,1.746,9.9822,0.00021,-0.00578,-0.00054,0.0,47.7,0.167,0.0,11.955,-0.037,11.955,43.04,0.0
7.97,-0.0411,1.3385,10.684,0.00576,2e-05,-0.00418,0.0,47.82,0.166,0.0,11.97,-0.037,11.97,43.09,0.0
7.98,0.1822,1.4182,10.4716,-0.00468,-0.00666,0.00711,0.0,47.94,0.166,0.0,11.985,-0.038,11.985,43.15,0.0
7.99,0.2157,1.2991,9.6501,0.00404,0.00249,-0.00499,0.0,48.06,0.166,0.0,12.0,-0.038,12.0,43.2,0.0
8.0,-0.5427,1.8044,10.0949,-0.00474,-0.00045,0.00455,0.0,48.18,0.165,0.0,12.015,-0.038,12.015,43.25,0.0
8.01,-0.1552,1.6406,9.5922,-0.00129,0.0091,-0.00379,0.0,48.3,0.165,0.0,12.03,-0.038,12.03,43.31,0.0
8.02,-0.2795,1.6069,9.6094,-0.00127,0.00724,-0.00143,0.0,48.421,0.164,0.0,12.045,-0.038,12.045,43.36,0.0
8.03,0.4516,1.5197,9.6364,0.00469,-0.00385,-0.00155,0.0,48.541,0.164,0.0,12.06,-0.038,12.06,43.42,0.0
8.04,-0.2563,1.396,9.4453,-0.00096,-0.00533,-0.01295,0.0,48.662,0.164,0.0,12.075,-0.038,12.075,43.47,0.0
8.05,0.0871,1.7954,10.57,0.00475,-0.00363,0.00084,0.0,48.783,0.163,0.0,12.09,-0.039,12.09,43.52,0.0
8.06,-0.2662,1.5176,9.61,0.00572,-0.00101,-0.00999,0.0,48.904,0.163,0.0,12.105,-0.039,12.105,43.58,0.0
8.07,-0.3524,1.4316,10.0086,-6e-05,-0.0041,0.00429,0.0,49.025,0.162,0.0,12.12,-0.039,12.12,43.63,0.0
8.08,0.1845,1.5211,10.082,-0.00243,-0.00549,0.00287,0.0,49.147,0.162,0.0,12.135,-0.039,12.135,43.69,0.0
8.09,-0.221,1.3314,10.0808,-0.00431,0.00085,0.00812,0.0,49.268,0.162,0.0,12.15,-0.039,12.15,43.74,0.0
8.1,0.1335,1.6416,9.7852,-0.00305,0.00309,-0.0057,0.0,49.39,0.161,0.0,12.165,-0.039,12.165,43.79,0.0
8.11,-0.0537,1.6177,9.8963,0.00554,-0.00263,0.00527,0.0,49.512,0.161,0.0,12.18,-0.04,12.18,43.85,0.0
8.12,-0.0212,1.7631,9.973,-0.01158,-0.00106,0.00871,0.0,49.634,0.16,0.0,12.195,-0.04,12.195,43.9,0.0
8.13,0.3146,1.3992,9.4941,0.00238,-0.00473,-0.00237,0.0,49.756,0.16,0.0,12.21,-0.04,12.21,43.96,0.0
8.14,0.2101,1.7141,9.4142,-0.00221,-0.0034,-0.0005,0.0,49.878,0.16,0.0,12.225,-0.04,12.225,44.01,0.0
8.15,0.261,1.5859,10.057,-0.0088,-0.0046,-0.00277,0.0,50.0,0.159,0.0,12.24,-0.04,12.24,44.06,0.0
8.16,-0.0981,1.3505,10.4335,-0.00314,0.00165,0.00357,0.0,50.123,0.159,0.0,12.255,-0.04,12.255,44.12,0.0
8.17,-0.0055,1.6447,9.8077,-0.00167,0.00215,0.00358,0.0,50.246,0.158,0.0,12.27,-0.04,12.27,44.17,0.0
8.18,-0.2483,1.3278,10.3788,0.00754,0.00212,0.00349,0.0,50.368,0.158,0.0,12.285,-0.041,12.285,44.23,0.0
8.19,0.0242,1.5372,10.0449,0.00215,0.00752,-0.00364,0.0,50.491,0.158,0.0,12.3,-0.041,12.3,44.28,0.0
8.2,-0.0454,1.5891,10.0536,-0.00497,-0.0077,0.00152,0.0,50.615,0.157,0.0,12.315,-0.041,12.315,44.33,0.0
8.21,0.306,1.6103,10.2642,0.00991,0.00197,-0.00823,0.0,50.738,0.157,0.0,12.33,-0.041,12.33,44.39,0.0
8.22,0.0103,1.2306,9.5602,-0.00203,-0.00236,-0.00811,0.0,50.861,0.156,0.0,12.345,-0.041,12.345,44.44,0.0
8.23,0.2471,1.393,9.5781,0.00234,0.00136,-0.0089,0.0,50.985,0.156,0.0,12.36,-0.041,12.36,44.5,0.0
8.24,0.1571,1.448,9.5005,-0.00076,0.00093,0.00059,0.0,51.109,0.156,0.0,12.375,-0.041,12.375,44.55,0.0
8.25,0.2905,1.7247,10.0925,0.00448,-0.0011,0.00043,0.0,51.233,0.155,0.0,12.39,-0.042,12.39,44.6,0.0
8.26,-0.5164,1.1987,10.0719,-0.00173,0.00919,0.00435,0.0,51.357,0.155,0.0,12.405,-0.042,12.405,44.66,0.0
8.27,-0.1478,1.6702,9.9176,-0.00781,0.00307,0.00349,0.0,51.481,0.154,0.0,12.42,-0.042,12.42,44.71,0.0
8.28,-0.2419,1.7463,9.6082,-0.00518,0.00767,0.00402,0.0,51.605,0.154,0.0,12.435,-0.042,12.435,44.77,0.0
8.29,-0.1518,1.488,9.8307,-0.0041,-0.00355,-0.01079,0.0,51.73,0.154,0.0,12.45,-0.042,12.45,44.82,0.0
8.3,-0.1246,1.6282,9.6016,0.00349,-0.00455,0.01061,0.0,51.854,0.153,0.0,12.465,-0.042,12.465,44.87,0.0
8.31,-0.3778,1.6754,9.2431,0.00089,-0.0028,0.00109,0.0,51.979,0.153,0.0,12.48,-0.042,12.48,44.93,0.0
8.32,-0.6485,1.5888,10.3225,0.00145,-0.00441,0.00171,0.0,52.104,0.152,0.0,12.495,-0.043,12.495,44.98,0.0
8.33,0.1088,1.5125,9.4879,-0.00037,0.00434,-0.00773,0.0,52.229,0.152,0.0,12.51,-0.043,12.51,45.04,0.0
8.34,0.275,1.4991,10.3856,0.00217,-0.00217,0.00083,0.0,52.354,0.151,0.0,12.525,-0.043,12.525,45.09,0.0
8.35,-0.187,1.863,9.7172,-0.00167,0.00166,0.00264,0.0,52.48,0.151,0.0,12.54,-0.043,12.54,45.14,0.0
8.36,0.1827,1.2837,10.0628,0.00089,0.00273,-0.00039,0.0,52.605,0.151,0.0,12.555,-0.043,12.555,45.2,0.0
8.37,-0.1766,1.0991,10.1709,-0.00086,0.00055,0.00153,0.0,52.731,0.15,0.0,12.57,-0.043,12.57,45.25,0.0
8.38,0.2446,1.4854,10.1432,0.00019,0.00258,0.00268,0.0,52.857,0.15,0.0,12.585,-0.043,12.585,45.31,0.0
8.39,0.4363,1.4495,9.6284,-0.00181,0.01167,-0.00109,0.0,52.983,0.149,0.0,12.6,-0.043,12.6,45.36,0.0
8.4,-0.3369,1.6189,10.2707,-0.0026,0.00196,-0.00249,0.0,53.109,0.149,0.0,12.615,-0.044,12.615,45.41,0.0
8.41,-0.0911,1.6513,10.3477,-0.00181,0.00782,-0.0015,0.0,53.235,0.148,0.0,12.63,-0.044,12.63,45.47,0.0
8.42,0.0775,1.7918,9.7,-0.00254,0.00227,-0.00183,0.0,53.362,0.148,0.0,12.645,-0.044,12.645,45.52,0.0
8.43,0.1561,1.8709,9.0773,0.00138,0.00404,-0.00291,0.0,53.488,0.147,0.0,12.66,-0.044,12.66,45.58,0.0
8.44,0.6301,1.6969,10.3907,-0.0037,-0.00631,-0.00998,0.0,53.615,0.147,0.0,12.675,-0.044,12.675,45.63,0.0
8.45,0.2263,1.5214,9.6576,0.00966,-0.00334,-0.0097,0.0,53.742,0.147,0.0,12.69,-0.044,12.69,45.68,0.0
8.46,0.1183,1.5316,9.3724,0.00484,-0.00344,0.0085,0.0,53.869,0.146,0.0,12.705,-0.044,12.705,45.74,0.0
8.47,0.0276,1.5045,10.1154,-7e-05,-0.0,-0.00501,0.0,53.996,0.146,0.0,12.72,-0.044,12.72,45.79,0.0
8.48,0.0227,0.9962,9.9479,0.00514,0.00096,-0.00253,0.0,54.124,0.145,0.0,12.735,-0.045,12.735,45.85,0.0
8.49,-0.0646,1.5928,9.3068,-0.00053,-0.01065,-0.00036,0.0,54.251,0.145,0.0,12.75,-0.045,12.75,45.9,0.0
8.5,-0.3171,0.97,10.4757,-0.01021,-0.00702,0.00287,0.0,54.379,0.144,0.0,12.765,-0.045,12.765,45.95,0.0
8.51,0.2982,1.342,9.937,-0.00136,-0.00263,-0.00061,0.0,54.507,0.144,0.0,12.78,-0.045,12.78,46.01,0.0
8.52,-0.464,1.5009,9.7688,-0.00032,-0.00266,-0.00571,0.0,54.635,0.143,0.0,12.795,-0.045,12.795,46.06,0.0
8.53,0.0213,1.7506,9.7385,0.00077,-0.00588,0.00303,0.0,54.763,0.143,0.0,12.81,-0.045,12.81,46.12,0.0
8.54,-0.0437,1.4331,9.8581,-0.00158,-0.00228,0.00551,0.0,54.891,0.143,0.0,12.825,-0.045,12.825,46.17,0.0
8.55,0.5888,1.3575,10.1783,-0.00559,-0.00475,-0.00527,0.0,55.019,0.142,0.0,12.84,-0.045,12.84,46.22,0.0
8.56,0.1676,1.4868,10.3052,-0.00833,0.00514,0.00125,0.0,55.148,0.142,0.0,12.855,-0.045,12.855,46.28,0.0
8.57,0.2048,1.175,9.8191,0.00015,0.00195,0.00837,0.0,55.277,0.141,0.0,12.87,-0.046,12.87,46.33,0.0
8.58,-0.0254,1.3235,9.7506,0.00565,0.00536,0.0006,0.0,55.405,0.141,0.0,12.885,-0.046,12.885,46.39,0.0
8.59,-0.4294,1.4762,9.767,-0.00041,0.00555,0.00395,0.0,55.534,0.14,0.0,12.9,-0.046,12.9,46.44,0.0
8.6,0.2278,1.4236,10.1074,0.00309,0.00695,0.0034,0.0,55.664,0.14,0.0,12.915,-0.046,12.915,46.49,0.0
8.61,0.2763,1.4009,9.2919,-0.00494,0.00593,-0.00287,0.0,55.793,0.139,0.0,12.93,-0.046,12.93,46.55,0.0
8.62,-0.1093,1.7104,9.3463,-0.00076,-0.00283,-0.00362,0.0,55.922,0.139,0.0,12.945,-0.046,12.945,46.6,0.0
8.63,0.2003,1.3075,9.6176,-0.00768,0.00554,-0.00127,0.0,56.052,0.138,0.0,12.96,-0.046,12.96,46.66,0.0
8.64,-0.0756,1.4364,9.7477,-0.00094,0.00342,0.0027,0.0,56.182,0.138,0.0,12.975,-0.046,12.975,46.71,0.0
8.65,0.3435,1.7858,9.4967,-0.0037,-0.00793,0.00297,0.0,56.312,0.138,0.0,12.99,-0.046,12.99,46.76,0.0
8.66,0.1454,1.3615,9.7863,-0.00276,-0.0008,0.01085,0.0,56.442,0.137,0.0,13.005,-0.046,13.005,46.82,0.0
8.67,-0.3226,1.4688,9.0492,0.01459,-0.01046,0.00976,0.0,56.572,0.137,0.0,13.02,-0.046,13.02,46.87,0.0
8.68,0.1018,1.7569,10.1698,-0.00522,0.00189,0.00033,0.0,56.702,0.136,0.0,13.035,-0.047,13.035,46.93,0.0
8.69,-0.5148,1.722,9.2146,0.00197,0.0022,2e-05,0.0,56.833,0.136,0.0,13.05,-0.047,13.05,46.98,0.0
8.7,0.1241,1.3579,10.35,0.00051,-0.01278,0.00117,0.0,56.963,0.135,0.0,13.065,-0.047,13.065,47.03,0.0
8.71,-0.3224,1.3532,9.5322,0.00318,0.01001,-0.00449,0.0,57.094,0.135,0.0,13.08,-0.047,13.08,47.09,0.0
8.72,-0.2352,1.9984,9.6461,0.00227,-0.00531,-0.00327,0.0,57.225,0.134,0.0,13.095,-0.047,13.095,47.14,0.0
8.73,-0.0224,1.5798,9.7563,0.00046,0.00045,0.00096,0.0,57.356,0.134,0.0,13.11,-0.047,13.11,47.2,0.0
8.74,0.2334,1.6846,9.4336,0.00262,-0.0009,0.00352,0.0,57.487,0.133,0.0,13.125,-0.047,13.125,47.25,0.0
8.75,0.0264,1.3684,9.6846,-0.00102,0.00312,-0.00024,0.0,57.619,0.133,0.0,13.14,-0.047,13.14,47.3,0.0
8.76,0.223,1.5072,9.8532,0.00102,0.01114,0.00793,0.0,57.75,0.132,0.0,13.155,-0.047,13.155,47.36,0.0
8.77,-0.0161,1.7766,10.1158,-0.00397,0.00042,0.00178,0.0,57.882,0.132,0.0,13.17,-0.047,13.17,47.41,0.0
8.78,-0.4478,1.021,9.7591,0.00272,0.01119,0.00618,0.0,58.014,0.131,0.0,13.185,-0.047,13.185,47.47,0.0
8.79,0.1585,1.497,9.9839,-0.00238,0.0034,-0.00538,0.0,58.146,0.131,0.0,13.2,-0.048,13.2,47.52,0.0
8.8,-0.1445,1.0969,10.1261,-0.00399,0.00111,-0.00281,0.0,58.278,0.13,0.0,13.215,-0.048,13.215,47.57,0.0
8.81,-0.3113,1.5379,9.2863,-0.00476,0.00242,-0.00059,0.0,58.41,0.13,0.0,13.23,-0.048,13.23,47.63,0.0
8.82,0.2409,1.0855,10.158,-0.00361,-0.00105,-0.00177,0.0,58.543,0.13,0.0,13.245,-0.048,13.245,47.68,0.0
8.83,-0.0411,1.4627,10.0324,-0.00357,-0.00431,0.00137,0.0,58.676,0.129,0.0,13.26,-0.048,13.26,47.74,0.0
8.84,0.9201,1.7584,9.6956,0.00673,-0.00614,-0.00237,0.0,58.808,0.129,0.0,13.275,-0.048,13.275,47.79,0.0
8.85,0.2023,1.4282,10.1877,0.00577,-0.00418,0.00407,0.0,58.941,0.128,0.0,13.29,-0.048,13.29,47.84,0.0
8.86,0.2766,1.2291,10.6874,-0.00679,0.00123,-0.00307,0.0,59.074,0.128,0.0,13.305,-0.048,13.305,47.9,0.0
8.87,-0.1195,1.4792,9.8672,-0.00459,0.00174,0.00321,0.0,59.207,0.127,0.0,13.32,-0.048,13.32,47.95,0.0
8.88,-0.142,1.3175,10.5886,0.00588,-0.0027,-0.00045,0.0,59.341,0.127,0.0,13.335,-0.048,13.335,48.01,0.0
8.89,0.207,1.7091,9.8255,0.00289,-0.00223,0.00099,0.0,59.474,0.126,0.0,13.35,-0.048,13.35,48.06,0.0
8.9,-0.2385,1.5214,10.5419,0.00712,0.00355,0.00752,0.0,59.608,0.126,0.0,13.365,-0.048,13.365,48.11,0.0
8.91,0.2795,1.3236,9.7002,-0.00486,0.00221,0.00773,0.0,59.742,0.125,0.0,13.38,-0.048,13.38,48.17,0.0
8.92,-0.3105,1.2094,9.6169,-0.01117,-0.00462,0.00131,0.0,59.876,0.125,0.0,13.395,-0.048,13.395,48.22,0.0
8.93,-0.1523,1.3983,9.8402,-0.00805,0.00309,-0.00086,0.0,60.01,0.124,0.0,13.41,-0.048,13.41,48.28,0.0
8.94,-0.0035,1.6042,9.244,-0.00448,0.00571,0.0011,0.0,60.144,0.124,0.0,13.425,-0.049,13.425,48.33,0.0
8.95,-0.1493,1.7091,9.9417,0.00121,0.00492,-0.00535,0.0,60.278,0.123,0.0,13.44,-0.049,13.44,48.38,0.0
8.96,0.2284,1.6056,9.4602,-0.001,-0.00858,-0.01003,0.0,60.413,0.123,0.0,13.455,-0.049,13.455,48.44,0.0
8.97,-0.2728,1.5896,9.5051,-0.00558,-0.00848,0.00753,0.0,60.548,0.122,0.0,13.47,-0.049,13.47,48.49,0.0
8.98,0.0223,1.3225,9.3581,-0.00187,0.00394,0.01056,0.0,60.683,0.122,0.0,13.485,-0.049,13.485,48.55,0.0
8.99,0.2188,1.6166,9.7019,0.00524,0.00081,0.00873,0.0,60.818,0.121,0.0,13.5,-0.049,13.5,48.6,0.0
9.001,-0.2107,1.6341,9.6472,0.00135,0.00811,0.00093,0.0,60.953,0.121,0.0,13.515,-0.049,13.515,48.65,0.0
9.011,-0.3132,1.6483,10.1285,-0.01167,0.00076,-0.00176,0.0,61.088,0.12,0.0,13.53,-0.049,13.53,48.71,0.0
9.021,-0.1781,1.5287,9.3435,-0.00327,-0.00468,-0.00709,0.0,61.223,0.12,0.0,13.545,-0.049,13.545,48.76,0.0
9.031,0.0484,1.8034,10.2833,-0.0096,-0.00679,-0.00347,0.0,61.359,0.119,0.0,13.56,-0.049,13.56,48.82,0.0
9.041,-0.3179,1.832,10.3535,0.00487,0.00141,-0.0004,0.0,61.495,0.119,0.0,13.575,-0.049,13.575,48.87,0.0
9.051,-0.0473,1.6669,9.3622,-0.00438,-0.0041,0.00329,0.0,61.631,0.118,0.0,13.59,-0.049,13.59,48.92,0.0
9.061,0.0311,1.4787,9.9863,0.00161,-0.00972,-0.00399,0.0,61.767,0.118,0.0,13.605,-0.049,13.605,48.98,0.0
9.071,-0.1039,1.3582,9.5943,0.00311,-0.00351,0.00884,0.0,61.903,0.117,0.0,13.62,-0.049,13.62,49.03,0.0
9.081,-0.1803,1.4557,9.2561,0.00429,-0.00209,0.0031,0.0,62.039,0.117,0.0,13.635,-0.049,13.635,49.09,0.0
9.091,-0.2416,1.2012,9.1078,0.00193,0.00312,-0.00464,0.0,62.176,0.116,0.0,13.65,-0.049,13.65,49.14,0.0
9.101,0.0644,1.1911,9.2795,0.00563,-0.00167,-0.00065,0.0,62.312,0.116,0.0,13.665,-0.049,13.665,49.19,0.0
9.111,0.1278,1.4773,9.148,0.00299,0.00304,-0.0055,0.0,62.449,0.115,0.0,13.68,-0.049,13.68,49.25,0.0
9.121,-0.1118,1.4308,9.4625,0.00474,0.00672,0.00297,0.0,62.586,0.115,0.0,13.695,-0.049,13.695,49.3,0.0
9.131,0.1705,1.1444,10.432,-0.00046,-0.00127,-0.00302,0.0,62.723,0.114,0.0,13.71,-0.049,13.71,49.36,0.0
9.141,-0.0136,1.66,9.4736,0.00564,0.00245,-0.00234,0.0,62.861,0.114,0.0,13.725,-0.049,13.725,49.41,0.0
9.151,0.3082,1.5176,9.7939,-0.00022,9e-05,0.00411,0.0,62.998,0.113,0.0,13.74,-0.05,13.74,49.46,0.0
9.161,0.0776,1.0135,10.4036,-0.00499,-0.00228,0.00119,0.0,63.135,0.113,0.0,13.755,-0.05,13.755,49.52,0.0
9.171,0.2813,1.4782,9.3033,-0.00191,0.00203,-0.0028,0.0,63.273,0.112,0.0,13.77,-0.05,13.77,49.57,0.0
9.181,-0.0004,1.7351,9.8441,0.00649,0.00163,0.00348,0.0,63.411,0.112,0.0,13.785,-0.05,13.785,49.63,0.0
9.191,0.175,1.6122,10.7335,-0.00479,0.00262,-0.01098,0.0,63.549,0.111,0.0,13.8,-0.05,13.8,49.68,0.0
9.201,-0.545,1.5627,10.0224,0.00809,-0.00186,0.00062,0.0,63.687,0.111,0.0,13.815,-0.05,13.815,49.73,0.0
9.211,-0.2344,1.684,9.2752,-0.00467,-0.00043,-0.00389,0.0,63.825,0.11,0.0,13.83,-0.05,13.83,49.79,0.0
9.221,0.261,1.2596,9.6508,0.00062,-0.00058,-0.00174,0.0,63.964,0.11,0.0,13.845,-0.05,13.845,49.84,0.0
9.231,-0.013,1.6877,9.5672,-0.00545,-0.00306,-0.00418,0.0,64.103,0.109,0.0,13.86,-0.05,13.86,49.9,0.0
9.241,0.1905,1.1883,9.0425,0.00252,-0.00675,0.00598,0.0,64.241,0.109,0.0,13.875,-0.05,13.875,49.95,0.0
9.251,-0.0851,1.2836,9.5793,-0.0032,0.00427,0.00444,0.0,64.38,0.108,0.0,13.89,-0.05,13.89,50.0,0.0
9.261,-0.4955,1.6014,9.5759,-0.00342,1e-05,0.00059,0.0,64.519,0.108,0.0,13.905,-0.05,13.905,50.06,0.0
9.271,0.3867,1.3736,9.8644,0.00721,-0.00567,0.01483,0.0,64.658,0.107,0.0,13.92,-0.05,13.92,50.11,0.0
9.281,-0.0409,1.3886,10.2149,0.00838,-0.00079,0.00143,0.0,64.798,0.107,0.0,13.935,-0.05,13.935,50.17,0.0
9.291,0.2632,1.5326,9.5383,0.00258,0.00142,-0.01028,0.0,64.937,0.106,0.0,13.95,-0.05,13.95,50.22,0.0
9.301,0.045,1.8607,9.9314,-0.00689,-0.00225,-0.00311,0.0,65.077,0.106,0.0,13.965,-0.05,13.965,50.27,0.0
9.311,0.1055,1.7373,9.7839,-0.00446,0.00041,-0.0011,0.0,65.217,0.105,0.0,13.98,-0.05,13.98,50.33,0.0
9.321,-0.2383,1.5531,9.8537,0.00202,-0.00117,-0.00482,0.0,65.357,0.105,0.0,13.995,-0.05,13.995,50.38,0.0
9.331,-0.2841,1.5847,9.8796,0.00305,0.00016,0.00171,0.0,65.497,0.104,0.0,14.01,-0.05,14.01,50.44,0.0
9.341,-0.2447,1.7027,9.3269,-0.00044,1e-05,0.00125,0.0,65.637,0.104,0.0,14.025,-0.05,14.025,50.49,0.0
9.351,-0.1133,1.5582,10.2135,0.00225,-0.00434,-0.00134,0.0,65.777,0.103,0.0,14.04,-0.05,14.04,50.54,0.0
9.361,0.3886,1.753,10.0456,0.00865,-0.00716,0.00203,0.0,65.918,0.103,0.0,14.055,-0.05,14.055,50.6,0.0
9.371,0.3121,1.4038,9.9254,-0.0073,-0.00353,0.00712,0.0,66.059,0.102,0.0,14.07,-0.05,14.07,50.65,0.0
9.381,0.2079,1.6056,9.1218,0.00616,-0.00271,-0.00641,0.0,66.2,0.102,0.0,14.085,-0.05,14.085,50.71,0.0
9.391,-0.1047,1.2451,9.7171,-0.00502,0.00262,0.00025,0.0,66.341,0.101,0.0,14.1,-0.05,14.1,50.76,0.0
9.401,-0.0175,1.6152,9.1961,0.00379,0.00908,-0.00673,0.0,66.482,0.101,0.0,14.115,-0.05,14.115,50.81,0.0
9.411,-0.5097,1.5111,9.1531,0.00546,0.00061,-0.00272,0.0,66.623,0.1,0.0,14.13,-0.05,14.13,50.87,0.0
9.421,0.0276,1.2499,9.6132,0.00935,0.00274,-0.00251,0.0,66.764,0.1,0.0,14.145,-0.05,14.145,50.92,0.0
9.431,0.322,1.5616,9.4246,-0.0037,-0.01493,-0.00067,0.0,66.906,0.099,0.0,14.16,-0.05,14.16,50.98,0.0
9.441,0.0582,1.7257,9.7919,0.00674,0.00128,-0.00154,0.0,67.048,0.099,0.0,14.175,-0.05,14.175,51.03,0.0
9.451,-0.0117,1.4609,9.7192,-0.00331,-0.00146,0.01023,0.0,67.19,0.098,0.0,14.19,-0.05,14.19,51.08,0.0
9.461,-0.1066,1.4824,9.904,0.00141,0.00175,0.00013,0.0,67.332,0.098,0.0,14.205,-0.05,14.205,51.14,0.0
9.471,-0.1447,1.304,9.8855,0.00587,0.00111,-0.00324,0.0,67.474,0.097,0.0,14.22,-0.05,14.22,51.19,0.0
9.481,-0.0613,1.5306,9.971,0.0013,-0.00172,-0.00126,0.0,67.616,0.097,0.0,14.235,-0.05,14.235,51.25,0.0
9.491,0.3298,1.3652,9.9815,-0.00037,0.00619,-0.00989,0.0,67.759,0.096,0.0,14.25,-0.05,14.25,51.3,0.0
9.501,-0.5269,1.3514,10.6639,-0.00817,0.00817,0.0069,0.0,67.901,0.096,0.0,14.265,-0.05,14.265,51.35,0.0
9.511,0.4245,1.437,9.6108,0.00066,0.00609,-0.0033,0.0,68.044,0.095,0.0,14.28,-0.05,14.28,51.41,0.0
9.521,-0.1512,1.5235,9.8002,-0.00292,0.00253,-0.00034,0.0,68.187,0.095,0.0,14.295,-0.05,14.295,51.46,0.0
9.531,-0.849,1.3943,9.705,0.00595,0.0032,0.00532,0.0,68.33,0.094,0.0,14.31,-0.05,14.31,51.52,0.0
9.541,0.0166,1.5669,9.795,0.0003,0.00288,-0.00022,0.0,68.474,0.094,0.0,14.325,-0.05,14.325,51.57,0.0
9.551,-0.1885,1.2914,9.6512,0.00532,-0.00711,-1e-05,0.0,68.617,0.093,0.0,14.34,-0.05,14.34,51.62,0.0
9.561,-0.0013,1.3732,9.6372,0.00277,-0.00472,0.0023,0.0,68.76,0.093,0.0,14.355,-0.05,14.355,51.68,0.0
9.571,-0.0586,1.2884,10.2205,0.00075,0.01216,0.00228,0.0,68.904,0.092,0.0,14.37,-0.05,14.37,51.73,0.0
9.581,0.0238,1.3329,9.2734,0.00286,-0.00212,0.00422,0.0,69.048,0.092,0.0,14.385,-0.05,14.385,51.79,0.0
9.591,0.0846,1.303,9.8493,-0.00164,-0.00312,-0.00347,0.0,69.192,0.091,0.0,14.4,-0.05,14.4,51.84,0.0
9.601,-0.2556,1.5199,9.6947,0.00212,-0.00511,0.01138,0.0,69.336,0.091,0.0,14.415,-0.05,14.415,51.89,0.0
9.611,0.234,1.5577,9.8542,-0.00743,0.00195,-0.00184,0.0,69.48,0.09,0.0,14.43,-0.05,14.43,51.95,0.0
9.621,-0.399,1.2966,10.0483,0.0036,0.00625,-1e-05,0.0,69.625,0.09,0.0,14.445,-0.05,14.445,52.0,0.0
9.631,0.2384,1.5521,10.0789,-0.00159,0.00437,-0.00535,0.0,69.77,0.089,0.0,14.46,-0.05,14.46,52.06,0.0
9.641,0.2013,1.4886,9.1643,0.00027,-0.00946,0.00249,0.0,69.914,0.089,0.0,14.475,-0.05,14.475,52.11,0.0
9.651,-0.1331,0.9865,9.6496,-0.00545,-0.00836,0.01001,0.0,70.059,0.088,0.0,14.49,-0.05,14.49,52.16,0.0
9.661,-0.1854,1.5177,9.5427,-0.00105,-0.00867,0.00273,0.0,70.204,0.088,0.0,14.505,-0.05,14.505,52.22,0.0
9.671,-0.0386,1.5511,9.5726,-9e-05,-0.00217,0.00139,0.0,70.349,0.087,0.0,14.52,-0.05,14.52,52.27,0.0
9.681,-0.8851,1.2823,9.5284,-0.00684,0.003,7e-05,0.0,70.495,0.087,0.0,14.535,-0.05,14.535,52.33,0.0
9.691,-0.4308,1.5297,10.5508,0.00722,0.0018,-0.00104,0.0,70.64,0.086,0.0,14.55,-0.05,14.55,52.38,0.0
9.701,-0.1298,1.6218,9.5286,0.00268,0.002,-0.00938,0.0,70.786,0.086,0.0,14.565,-0.05,14.565,52.43,0.0
9.711,0.1906,1.8715,10.051,-0.00949,0.00109,-0.00451,0.0,70.932,0.086,0.0,14.58,-0.049,14.58,52.49,0.0
9.721,0.1177,1.6835,9.3506,0.00239,-0.00465,0.00078,0.0,71.078,0.085,0.0,14.595,-0.049,14.595,52.54,0.0
9.731,0.3551,1.8431,10.431,-0.00169,-0.00319,0.00018,0.0,71.224,0.085,0.0,14.61,-0.049,14.61,52.6,0.0
9.741,0.5892,1.2967,9.5241,0.00659,-0.00775,-0.00874,0.0,71.37,0.084,0.0,14.625,-0.049,14.625,52.65,0.0
9.751,0.077,1.2118,9.5757,0.00109,0.00751,0.00379,0.0,71.516,0.084,0.0,14.64,-0.049,14.64,52.7,0.0
9.761,0.1036,1.3986,9.5768,-0.00043,0.00165,0.0004,0.0,71.663,0.083,0.0,14.655,-0.049,14.655,52.76,0.0
9.771,0.0105,1.4909,10.2507,0.00079,-0.00538,-0.0019,0.0,71.81,0.083,0.0,14.67,-0.049,14.67,52.81,0.0
9.781,-0.0078,1.554,10.0845,0.00656,-0.00488,-0.00473,0.0,71.957,0.082,0.0,14.685,-0.049,14.685,52.87,0.0
9.791,0.2154,1.3542,10.3063,0.00198,-0.00978,0.00077,0.0,72.104,0.082,0.0,14.7,-0.049,14.7,52.92,0.0
9.801,0.2633,1.868,9.7006,-0.00255,0.00032,-0.00652,0.0,72.251,0.081,0.0,14.715,-0.049,14.715,52.97,0.0
9.811,0.2554,1.4971,9.9655,-0.00093,-0.00025,-0.00381,0.0,72.398,0.081,0.0,14.73,-0.049,14.73,53.03,0.0
9.821,-0.1923,1.6396,9.6951,-0.00171,0.00349,0.00019,0.0,72.545,0.08,0.0,14.745,-0.049,14.745,53.08,0.0
9.831,-0.2828,1.515,9.5674,0.00487,0.00218,-0.00056,0.0,72.693,0.08,0.0,14.76,-0.049,14.76,53.14,0.0
9.841,0.3033,1.2117,9.2868,0.00411,-0.00589,-0.00703,0.0,72.841,0.079,0.0,14.775,-0.049,14.775,53.19,0.0
9.851,0.2075,1.2825,10.2608,-0.0018,0.00292,0.00095,0.0,72.989,0.079,0.0,14.79,-0.049,14.79,53.24,0.0
9.861,0.2755,1.4606,9.8177,0.00607,0.00604,0.00552,0.0,73.137,0.078,0.0,14.805,-0.049,14.805,53.3,0.0
9.871,0.337,1.6511,9.4901,-0.00123,-0.00882,0.00334,0.0,73.285,0.078,0.0,14.82,-0.049,14.82,53.35,0.0
9.881,-0.0366,1.6452,9.6734,-0.0058,-0.00036,-0.00428,0.0,73.433,0.077,0.0,14.835,-0.049,14.835,53.41,0.0
9.891,-0.1601,1.4659,9.9111,-0.00454,-0.00317,0.0033,0.0,73.582,0.077,0.0,14.85,-0.049,14.85,53.46,0.0
9.901,0.0246,1.7814,9.7361,-0.00166,0.00223,0.00459,0.0,73.73,0.076,0.0,14.865,-0.049,14.865,53.51,0.0
9.911,-0.3951,1.1841,9.8136,-0.00079,0.00246,0.00796,0.0,73.879,0.076,0.0,14.88,-0.049,14.88,53.57,0.0
9.921,0.0455,1.8618,10.257,0.00326,0.00116,0.00494,0.0,74.028,0.075,0.0,14.895,-0.048,14.895,53.62,0.0
9.931,-0.0646,1.7061,9.6804,-0.00197,0.00434,-0.00042,0.0,74.177,0.075,0.0,14.91,-0.048,14.91,53.68,0.0
9.941,-0.0976,1.3624,9.7295,-0.00576,-0.00033,0.00546,0.0,74.327,0.074,0.0,14.925,-0.048,14.925,53.73,0.0
9.951,-0.1947,1.7685,9.8893,0.00327,0.00355,-0.00358,0.0,74.476,0.074,0.0,14.94,-0.048,14.94,53.78,0.0
9.961,-0.3255,1.2683,9.3932,0.00297,-0.00137,-0.00374,0.0,74.625,0.073,0.0,14.955,-0.048,14.955,53.84,0.0
9.971,-0.3354,1.5625,10.0857,0.00078,-0.00905,-0.00225,0.0,74.775,0.073,0.0,14.97,-0.048,14.97,53.89,0.0
9.981,-0.3159,1.2529,9.3747,0.00311,-0.01263,-0.00502,0.0,74.925,0.072,0.0,14.985,-0.048,14.985,53.95,0.0
9.991,-0.1389,1.3395,9.9182,0.00286,0.00083,-0.00208,0.0,75.075,0.072,0.0,15.0,-0.048,15.0,54.0,0.0
10.001,0.0738,-0.168,10.1986,-0.01242,0.00322,-0.00145,0.0,75.225,0.071,0.0,15.0,-0.048,15.0,54.0,0.0
10.011,-0.0528,0.0154,9.3547,-0.00085,0.00017,0.00327,0.0,75.375,0.071,0.0,15.0,-0.048,15.0,54.0,0.0
10.021,-0.2919,-0.0247,9.5657,-0.00046,-0.00331,-0.00789,0.0,75.525,0.07,0.0,15.0,-0.048,15.0,54.0,0.0
10.031,-0.3844,-0.0213,9.5932,0.00262,0.00505,-0.00032,0.0,75.675,0.07,0.0,15.0,-0.048,15.0,54.0,0.0
10.041,-0.3952,0.0287,9.8764,0.00076,-0.00091,-0.00285,0.0,75.825,0.069,0.0,15.0,-0.048,15.0,54.0,0.0
10.051,0.0348,-0.0742,10.6381,0.00845,-0.00553,-0.0042,0.0,75.975,0.069,0.0,15.0,-0.048,15.0,54.0,0.0
10.061,0.26,-0.1027,10.1301,-0.00373,-0.00213,-0.00974,0.0,76.125,0.069,0.0,15.0,-0.047,15.0,54.0,0.0
10.071,0.0027,0.2909,9.793,-1e-05,-0.00021,-0.00268,0.0,76.275,0.068,0.0,15.0,-0.047,15.0,54.0,0.0
10.081,-0.3394,0.1405,9.9851,-0.00725,-0.00209,0.00681,0.0,76.425,0.068,0.0,15.0,-0.047,15.0,54.0,0.0
10.091,-0.1412,-0.1531,9.281,0.00522,0.00309,-0.00609,0.0,76.575,0.067,0.0,15.0,-0.047,15.0,54.0,0.0
10.101,0.1286,0.1098,9.9241,-0.0015,0.00082,0.00641,0.0,76.725,0.067,0.0,15.0,-0.047,15.0,54.0,0.0
10.111,-0.2551,0.1473,9.3397,-0.00788,-0.00901,-0.00056,0.0,76.875,0.066,0.0,15.0,-0.047,15.0,54.0,0.0
10.121,0.3318,0.0173,9.3742,0.00933,-0.00338,0.00023,0.0,77.025,0.066,0.0,15.0,-0.047,15.0,54.0,0.0
10.131,-0.0582,-0.1608,9.7335,0.00631,0.00375,-0.00344,0.0,77.175,0.065,0.0,15.0,-0.047,15.0,54.0,0.0
10.141,-0.0329,-0.0639,10.0042,-0.00174,0.00516,0.00766,0.0,77.325,0.065,0.0,15.0,-0.047,15.0,54.0,0.0
10.151,-0.1511,-0.3809,9.476,0.00832,0.00268,0.00746,0.0,77.475,0.064,0.0,15.0,-0.047,15.0,54.0,0.0
10.161,-0.111,0.1214,9.4037,0.00222,-0.01056,-0.00711,0.0,77.625,0.064,0.0,15.0,-0.047,15.0,54.0,0.0
10.171,-0.2664,-0.1299,9.9315,0.0008,-0.00316,-0.00374,0.0,77.775,0.063,0.0,15.0,-0.047,15.0,54.0,0.0
10.181,-0.3939,0.4096,9.4463,0.00032,-0.00487,-0.00384,0.0,77.925,0.063,0.0,15.0,-0.046,15.0,54.0,0.0
10.191,-0.1924,0.2627,10.0217,-0.00242,-0.00575,-0.00079,0.0,78.075,0.062,0.0,15.0,-0.046,15.0,54.0,0.0
10.201,0.234,-0.1287,9.7169,-0.00982,0.00702,0.00045,0.0,78.225,0.062,0.0,15.0,-0.046,15.0,54.0,0.0
10.211,0.0078,0.0188,9.6536,0.00386,0.00693,-0.00657,0.0,78.375,0.061,0.0,15.0,-0.046,15.0,54.0,0.0
10.221,-0.0936,0.0096,10.1041,0.00202,0.00362,0.00791,0.0,78.525,0.061,0.0,15.0,-0.046,15.0,54.0,0.0
10.231,-0.0153,-0.0102,10.4787,0.00467,-0.0067,0.00061,0.0,78.675,0.061,0.0,15.0,-0.046,15.0,54.0,0.0
10.241,0.6315,-0.0621,9.4361,-0.00563,0.00572,0.00225,0.0,78.825,0.06,0.0,15.0,-0.046,15.0,54.0,0.0
10.251,-0.5321,0.0832,9.7296,0.00843,-0.0012,-0.00507,0.0,78.975,0.06,0.0,15.0,-0.046,15.0,54.0,0.0
10.261,-0.0406,0.3285,9.9556,0.00052,-0.00257,-0.01359,0.0,79.125,0.059,0.0,15.0,-0.046,15.0,54.0,0.0
10.271,-0.0395,-0.5117,10.1006,-0.00048,-0.00241,0.00079,0.0,79.275,0.059,0.0,15.0,-0.046,15.0,54.0,0.0
10.281,-0.0865,-0.1139,10.3277,-0.00019,-0.00116,-0.00171,0.0,79.425,0.058,0.0,15.0,-0.045,15.0,54.0,0.0
10.291,0.1455,-0.1324,9.4851,0.00879,-0.00685,-0.00581,0.0,79.575,0.058,0.0,15.0,-0.045,15.0,54.0,0.0
10.301,0.2127,0.1585,10.2974,-0.00194,-0.0065,-0.00535,0.0,79.725,0.057,0.0,15.0,-0.045,15.0,54.0,0.0
10.311,0.093,-0.242,9.8271,-0.00392,-0.00229,-0.00563,0.0,79.875,0.057,0.0,15.0,-0.045,15.0,54.0,0.0
10.321,-0.0804,0.0401,9.0544,-0.00027,-0.00051,-0.00406,0.0,80.025,0.056,0.0,15.0,-0.045,15.0,54.0,0.0
10.331,-0.1213,-0.3215,10.0765,0.00657,-0.00567,0.00283,0.0,80.175,0.056,0.0,15.0,-0.045,15.0,54.0,0.0
10.341,-0.2175,0.4208,9.8115,0.00032,-0.00036,-0.00172,0.0,80.325,0.056,0.0,15.0,-0.045,15.0,54.0,0.0
10.351,-0.4493,-0.1688,9.4785,0.00447,-0.00357,-0.00045,0.0,80.475,0.055,0.0,15.0,-0.045,15.0,54.0,0.0
10.361,0.1446,0.0531,9.7316,-0.00543,-0.00155,-0.00667,0.0,80.625,0.055,0.0,15.0,-0.045,15.0,54.0,0.0
10.371,0.1456,-0.1135,9.6703,0.00181,-0.00657,-0.00917,0.0,80.775,0.054,0.0,15.0,-0.045,15.0,54.0,0.0
10.381,0.1371,0.2311,9.1359,-0.00516,-0.00784,0.00173,0.0,80.925,0.054,0.0,15.0,-0.044,15.0,54.0,0.0
10.391,0.2788,0.0406,9.3154,0.00383,0.00237,0.00177,0.0,81.075,0.053,0.0,15.0,-0.044,15.0,54.0,0.0
10.401,-0.2943,0.2277,9.5497,0.00437,-0.00237,0.00188,0.0,81.225,0.053,0.0,15.0,-0.044,15.0,54.0,0.0
10.411,-0.1936,-0.2079,9.6162,-0.00262,-0.0004,0.00348,0.0,81.375,0.052,0.0,15.0,-0.044,15.0,54.0,0.0
10.421,0.1525,0.0465,9.8591,-0.00467,-0.00039,-0.00438,0.0,81.525,0.052,0.0,15.0,-0.044,15.0,54.0,0.0
10.431,0.0103,0.1435,9.8158,-0.00108,0.00252,-0.00467,0.0,81.675,0.052,0.0,15.0,-0.044,15.0,54.0,0.0
10.441,-0.0784,-0.2848,9.8884,0.00548,-0.00559,0.00378,0.0,81.825,0.051,0.0,15.0,-0.044,15.0,54.0,0.0
10.451,0.1124,-0.3645,9.569,0.0055,0.00222,-0.00137,0.0,81.975,0.051,0.0,15.0,-0.044,15.0,54.0,0.0
10.461,0.0896,0.1063,9.7719,-0.00501,-0.00072,-0.0042,0.0,82.125,0.05,0.0,15.0,-0.043,15.0,54.0,0.0
10.471,0.2414,-0.0988,9.8626,-0.01181,-0.00053,-0.00931,0.0,82.275,0.05,0.0,15.0,-0.043,15.0,54.0,0.0
10.481,0.2136,-0.012,10.1526,-0.0006,0.00256,0.0018,0.0,82.425,0.049,0.0,15.0,-0.043,15.0,54.0,0.0
10.491,-0.3169,-0.1284,9.5777,0.00519,-0.00092,0.00148,0.0,82.575,0.049,0.0,15.0,-0.043,15.0,54.0,0.0
10.501,-0.3553,-0.06,9.9201,0.0005,0.00788,-3e-05,0.0,82.725,0.049,0.0,15.0,-0.043,15.0,54.0,0.0
10.511,0.1061,0.1685,9.8784,0.00572,0.00078,-0.0043,0.0,82.875,0.048,0.0,15.0,-0.043,15.0,54.0,0.0
10.521,0.3138,0.0122,10.1414,0.003,0.00662,-0.00309,0.0,83.025,0.048,0.0,15.0,-0.043,15.0,54.0,0.0
10.531,0.0944,0.02,10.685,-0.00143,-0.00303,-0.0016,0.0,83.175,0.047,0.0,15.0,-0.043,15.0,54.0,0.0
10.541,-0.151,-0.0449,10.2966,-0.00162,0.00284,0.00512,0.0,83.325,0.047,0.0,15.0,-0.042,15.0,54.0,0.0
10.551,-0.3267,-0.0596,9.9916,0.00273,0.00398,-0.00174,0.0,83.475,0.046,0.0,15.0,-0.042,15.0,54.0,0.0
10.561,0.5007,-0.3131,9.3243,0.00029,-0.00741,-0.00674,0.0,83.625,0.046,0.0,15.0,-0.042,15.0,54.0,0.0
10.571,-0.2786,0.1967,10.2304,-0.00209,-0.00234,0.00448,0.0,83.775,0.046,0.0,15.0,-0.042,15.0,54.0,0.0
10.581,-0.1734,-0.1734,9.9467,-0.00688,-0.00545,-0.00114,0.0,83.925,0.045,0.0,15.0,-0.042,15.0,54.0,0.0
10.591,0.1256,-0.1848,10.2386,-0.00289,0.00181,0.00516,0.0,84.075,0.045,0.0,15.0,-0.042,15.0,54.0,0.0
10.601,-0.2506,-0.0016,9.8703,-0.00106,-0.00386,0.00416,0.0,84.225,0.044,0.0,15.0,-0.042,15.0,54.0,0.0
10.611,0.0353,0.1268,9.5803,-0.01211,0.00107,-0.00316,0.0,84.375,0.044,0.0,15.0,-0.041,15.0,54.0,0.0
10.621,0.1596,-0.0282,9.5216,0.00183,0.00343,-0.00827,0.0,84.525,0.043,0.0,15.0,-0.041,15.0,54.0,0.0
10.631,-0.0828,-0.0231,10.1231,-0.00096,0.0074,-0.00525,0.0,84.675,0.043,0.0,15.0,-0.041,15.0,54.0,0.0
10.641,-0.1719,0.1528,9.5079,0.00799,-0.00653,0.00147,0.0,84.825,0.043,0.0,15.0,-0.041,15.0,54.0,0.0
10.651,-0.4971,-0.0227,9.5918,0.00086,-0.00322,-0.00599,0.0,84.975,0.042,0.0,15.0,-0.041,15.0,54.0,0.0
10.661,-0.4069,-0.1727,9.4859,-0.00794,0.00538,0.00013,0.0,85.125,0.042,0.0,15.0,-0.041,15.0,54.0,0.0
10.671,0.2083,-0.033,9.5177,0.00282,-0.00318,-0.00518,0.0,85.275,0.041,0.0,15.0,-0.041,15.0,54.0,0.0
10.681,-0.0269,-0.139,9.321,0.00105,-0.00704,-9e-05,0.0,85.425,0.041,0.0,15.0,-0.04,15.0,54.0,0.0
10.691,-0.185,-0.4322,9.678,-0.00705,0.001,0.00371,0.0,85.575,0.041,0.0,15.0,-0.04,15.0,54.0,0.0
10.701,-0.1853,-0.1261,9.454,0.00078,0.00434,0.0039,0.0,85.725,0.04,0.0,15.0,-0.04,15.0,54.0,0.0
10.711,-0.174,-0.4002,9.6875,0.00567,-0.00505,0.00147,0.0,85.875,0.04,0.0,15.0,-0.04,15.0,54.0,0.0
10.721,0.1219,0.2979,9.4248,0.00164,-0.00221,0.00526,0.0,86.025,0.039,0.0,15.0,-0.04,15.0,54.0,0.0
10.731,0.1752,0.0938,9.5902,0.00113,-0.00079,0.00542,0.0,86.175,0.039,0.0,15.0,-0.04,15.0,54.0,0.0
10.741,-0.2271,0.25,9.2486,0.00304,-0.00162,0.00067,0.0,86.325,0.039,0.0,15.0,-0.04,15.0,54.0,0.0
10.751,0.4406,0.1705,9.2992,-0.00585,-0.00499,0.00126,0.0,86.475,0.038,0.0,15.0,-0.039,15.0,54.0,0.0
10.761,0.23,0.185,9.7945,0.00996,-0.00229,-0.00648,0.0,86.625,0.038,0.0,15.0,-0.039,15.0,54.0,0.0
10.771,0.0096,0.0854,9.8323,0.00281,0.00791,0.00972,0.0,86.775,0.037,0.0,15.0,-0.039,15.0,54.0,0.0
10.781,-0.0305,-0.2448,9.7206,0.00404,-0.00282,-0.00651,0.0,86.925,0.037,0.0,15.0,-0.039,15.0,54.0,0.0
10.791,0.0886,0.1476,10.0016,-0.00164,-0.00254,-0.00645,0.0,87.075,0.037,0.0,15.0,-0.039,15.0,54.0,0.0
10.801,-0.1319,0.2332,9.5663,0.00441,-0.00307,0.00457,0.0,87.225,0.036,0.0,15.0,-0.039,15.0,54.0,0.0
10.811,-0.0766,-0.0525,9.6093,0.00704,0.00258,-0.01285,0.0,87.375,0.036,0.0,15.0,-0.038,15.0,54.0,0.0
10.821,0.5502,-0.1925,9.9014,-0.0011,0.00058,0.00289,0.0,87.525,0.036,0.0,15.0,-0.038,15.0,54.0,0.0
10.831,0.083,0.0724,9.4209,0.00511,-0.0033,-0.00445,0.0,87.675,0.035,0.0,15.0,-0.038,15.0,54.0,0.0
10.841,0.2832,-0.0793,10.2823,-0.00114,-0.00178,0.00757,0.0,87.825,0.035,0.0,15.0,-0.038,15.0,54.0,0.0
10.851,-0.0268,0.1126,9.3974,0.0017,-0.00042,0.00331,0.0,87.975,0.034,0.0,15.0,-0.038,15.0,54.0,0.0
10.861,-0.1227,0.0139,10.561,0.01422,0.00049,0.00373,0.0,88.125,0.034,0.0,15.0,-0.038,15.0,54.0,0.0
10.871,-0.2615,0.0584,10.1042,-0.00783,-0.00744,-0.00191,0.0,88.275,0.034,0.0,15.0,-0.037,15.0,54.0,0.0
10.881,0.3108,-0.1598,9.5274,0.00238,0.00061,0.0035,0.0,88.425,0.033,0.0,15.0,-0.037,15.0,54.0,0.0
10.891,-0.0362,0.0332,9.9501,0.00599,-0.00174,-0.00408,0.0,88.575,0.033,0.0,15.0,-0.037,15.0,54.0,0.0
10.901,-0.0753,0.1006,9.3865,0.00036,0.00345,-0.00044,0.0,88.725,0.033,0.0,15.0,-0.037,15.0,54.0,0.0
10.911,0.0945,0.3117,9.4633,-0.00084,0.00134,0.01021,0.0,88.875,0.032,0.0,15.0,-0.037,15.0,54.0,0.0
10.921,0.0577,-0.2853,10.2258,-0.01175,0.00425,-0.00163,0.0,89.025,0.032,0.0,15.0,-0.037,15.0,54.0,0.0
10.931,0.2591,-0.012,9.994,0.002,-0.00161,0.00137,0.0,89.175,0.031,0.0,15.0,-0.036,15.0,54.0,0.0
10.941,0.1429,0.0839,9.6413,-0.00942,0.00593,0.00078,0.0,89.325,0.031,0.0,15.0,-0.036,15.0,54.0,0.0
10.951,-0.0771,-0.0229,9.6757,0.00314,-0.00323,-0.00619,0.0,89.475,0.031,0.0,15.0,-0.036,15.0,54.0,0.0
10.961,0.1993,0.038,9.9155,0.00287,0.00412,-0.00045,0.0,89.625,0.03,0.0,15.0,-0.036,15.0,54.0,0.0
10.971,-0.2654,-0.383,9.3104,-0.0051,0.00503,0.00716,0.0,89.775,0.03,0.0,15.0,-0.036,15.0,54.0,0.0
10.981,-0.0407,0.2149,10.3163,0.00654,-0.00124,-0.00568,0.0,89.925,0.03,0.0,15.0,-0.036,15.0,54.0,0.0
10.991,-0.1615,-0.476,9.8156,-0.00549,0.01056,0.00109,0.0,90.075,0.029,0.0,15.0,-0.035,15.0,54.0,0.0
11.001,0.0554,-0.0466,9.9651,-0.00212,-0.0016,-0.00445,0.0,90.225,0.029,0.0,15.0,-0.035,15.0,54.0,0.0
11.011,0.0925,0.0116,9.8267,0.00283,-0.00121,-0.00426,0.0,90.375,0.029,0.0,15.0,-0.035,15.0,54.0,0.0
11.021,-0.0035,-0.1805,9.8474,-0.00977,0.00017,0.00145,0.0,90.525,0.028,0.0,15.0,-0.035,15.0,54.0,0.0
11.031,0.1671,-0.0261,9.9349,0.00429,-0.00259,0.00915,0.0,90.675,0.028,0.0,15.0,-0.035,15.0,54.0,0.0
11.041,0.5198,-0.0136,9.9208,0.00499,-0.00495,-0.00723,0.0,90.825,0.028,0.0,15.0,-0.035,15.0,54.0,0.0
11.051,-0.3014,0.0338,10.7005,-0.01054,0.00711,0.00072,0.0,90.975,0.027,0.0,15.0,-0.034,15.0,54.0,0.0
11.061,0.4911,0.0161,10.0643,-0.00033,-0.00223,-0.00357,0.0,91.125,0.027,0.0,15.0,-0.034,15.0,54.0,0.0
11.071,-0.4276,-0.0604,10.1185,0.00557,0.00263,0.00438,0.0,91.275,0.027,0.0,15.0,-0.034,15.0,54.0,0.0
11.081,-0.1175,0.184,10.0542,0.00517,0.00233,-0.00129,0.0,91.425,0.026,0.0,15.0,-0.034,15.0,54.0,0.0
11.091,0.5966,0.3352,9.5334,-0.0046,-0.0035,-0.00655,0.0,91.575,0.026,0.0,15.0,-0.034,15.0,54.0,0.0
11.101,0.3816,-0.0712,9.7601,-0.00376,-0.00021,-0.00419,0.0,91.725,0.026,0.0,15.0,-0.033,15.0,54.0,0.0
11.111,-0.2503,-0.309,10.0587,-0.00118,-0.00173,0.00631,0.0,91.875,0.025,0.0,15.0,-0.033,15.0,54.0,0.0
11.121,-0.2343,0.1025,10.5488,-0.00287,0.00097,0.00239,0.0,92.025,0.025,0.0,15.0,-0.033,15.0,54.0,0.0
11.131,-0.2723,-0.0874,9.5376,0.00215,-0.00918,-0.01554,0.0,92.175,0.025,0.0,15.0,-0.033,15.0,54.0,0.0
11.141,-0.4154,-0.5307,9.1883,-0.00937,0.00843,0.0016,0.0,92.325,0.024,0.0,15.0,-0.033,15.0,54.0,0.0
11.151,-0.2102,-0.1037,9.4766,-0.00205,-0.0098,-0.00193,0.0,92.475,0.024,0.0,15.0,-0.033,15.0,54.0,0.0
11.161,0.7865,0.1729,10.494,0.00036,0.00148,-0.00176,0.0,92.625,0.024,0.0,15.0,-0.032,15.0,54.0,0.0
11.171,-0.1157,-0.0663,9.8703,0.0065,-0.00745,-0.006,0.0,92.775,0.023,0.0,15.0,-0.032,15.0,54.0,0.0
11.181,0.1327,-0.1403,9.6975,0.00322,0.01113,-0.00488,0.0,92.925,0.023,0.0,15.0,-0.032,15.0,54.0,0.0
11.191,0.0189,0.3135,9.7028,-0.00221,-0.00194,-0.00071,0.0,93.075,0.023,0.0,15.0,-0.032,15.0,54.0,0.0
11.201,0.2457,-0.116,9.6029,0.00298,0.00574,-7e-05,0.0,93.225,0.022,0.0,15.0,-0.032,15.0,54.0,0.0
11.211,-0.0862,0.0743,9.7579,-0.00413,0.00305,0.00552,0.0,93.375,0.022,0.0,15.0,-0.031,15.0,54.0,0.0
11.221,-0.0676,-0.02,9.4397,-0.00121,-0.01097,0.00261,0.0,93.525,0.022,0.0,15.0,-0.031,15.0,54.0,0.0
11.231,0.1179,-0.005,10.2439,-0.00562,0.00496,-0.00173,0.0,93.675,0.021,0.0,15.0,-0.031,15.0,54.0,0.0
11.241,0.1218,-0.0575,10.018,0.00349,0.00439,-0.00015,0.0,93.825,0.021,0.0,15.0,-0.031,15.0,54.0,0.0
11.251,0.2444,-0.478,9.5887,0.00728,0.00534,0.00702,0.0,93.975,0.021,0.0,15.0,-0.031,15.0,54.0,0.0
11.261,0.082,-0.3347,10.0006,-0.00605,-0.01001,0.00048,0.0,94.125,0.02,0.0,15.0,-0.03,15.0,54.0,0.0
11.271,-0.2344,-0.037,10.1763,-0.00788,-0.00558,-0.0031,0.0,94.275,0.02,0.0,15.0,-0.03,15.0,54.0,0.0
11.281,-0.0584,-0.1654,10.0387,-0.00174,-0.0055,-0.00109,0.0,94.425,0.02,0.0,15.0,-0.03,15.0,54.0,0.0
11.291,-0.2621,0.0828,9.554,0.00371,-0.00046,-0.00238,0.0,94.575,0.02,0.0,15.0,-0.03,15.0,54.0,0.0
11.301,0.147,0.0882,10.7862,0.01294,0.00491,0.00472,0.0,94.725,0.019,0.0,15.0,-0.03,15.0,54.0,0.0
11.311,-0.5351,0.384,10.3497,0.00347,0.00637,0.0048,0.0,94.875,0.019,0.0,15.0,-0.029,15.0,54.0,0.0
11.321,0.4512,-0.2348,10.1396,0.00655,-0.00019,-0.00101,0.0,95.025,0.019,0.0,15.0,-0.029,15.0,54.0,0.0
11.331,0.0646,0.0602,9.954,-0.00289,-0.00422,-0.00107,0.0,95.175,0.018,0.0,15.0,-0.029,15.0,54.0,0.0
11.341,-0.1113,0.102,9.6707,0.00394,0.01234,0.00331,0.0,95.325,0.018,0.0,15.0,-0.029,15.0,54.0,0.0
11.351,-0.2011,-0.2712,9.9139,-0.00089,0.00937,0.0038,0.0,95.475,0.018,0.0,15.0,-0.029,15.0,54.0,0.0
11.361,-0.4561,0.0172,9.9787,-0.00817,-0.00511,-0.00643,0.0,95.625,0.017,0.0,15.0,-0.028,15.0,54.0,0.0
11.371,-0.121,-0.2649,10.1721,-0.00275,0.00191,-0.0056,0.0,95.775,0.017,0.0,15.0,-0.028,15.0,54.0,0.0
11.381,0.1369,-0.071,10.1121,0.00191,-0.00328,0.00057,0.0,95.925,0.017,0.0,15.0,-0.028,15.0,54.0,0.0
11.391,-0.1234,0.0624,10.0937,0.0087,0.00573,0.00543,0.0,96.075,0.017,0.0,15.0,-0.028,15.0,54.0,0.0
11.401,-0.1464,-0.4351,10.1685,-0.00039,-0.01172,-0.00318,0.0,96.225,0.016,0.0,15.0,-0.028,15.0,54.0,0.0
11.411,-0.096,-0.0406,9.4895,-0.00508,-0.00623,0.01059,0.0,96.375,0.016,0.0,15.0,-0.027,15.0,54.0,0.0
11.421,-0.4885,-0.2832,9.529,0.00659,-0.00258,-0.00546,0.0,96.525,0.016,0.0,15.0,-0.027,15.0,54.0,0.0
11.431,0.1902,-0.0725,9.2042,-0.00384,-0.0082,-0.00336,0.0,96.675,0.016,0.0,15.0,-0.027,15.0,54.0,0.0
11.441,0.4015,0.0253,9.6838,-0.00704,-0.0075,-0.00322,0.0,96.825,0.015,0.0,15.0,-0.027,15.0,54.0,0.0
11.451,-0.3407,0.1416,10.2776,-0.00058,0.00045,0.00513,0.0,96.975,0.015,0.0,15.0,-0.026,15.0,54.0,0.0
11.461,0.5067,0.044,9.7878,0.00016,0.00117,0.00251,0.0,97.125,0.015,0.0,15.0,-0.026,15.0,54.0,0.0
11.471,0.6516,0.0286,9.676,0.00453,-0.0067,0.00342,0.0,97.275,0.015,0.0,15.0,-0.026,15.0,54.0,0.0
11.481,-0.3765,0.0885,9.7541,0.00035,-0.00467,-0.00299,0.0,97.425,0.014,0.0,15.0,-0.026,15.0,54.0,0.0
11.491,-0.1112,0.0416,9.5526,-0.00277,0.00534,0.00105,0.0,97.575,0.014,0.0,15.0,-0.026,15.0,54.0,0.0
11.501,-0.2671,-0.1749,10.5487,0.01114,0.00069,0.01116,0.0,97.725,0.014,0.0,15.0,-0.025,15.0,54.0,0.0
11.511,0.0693,0.1674,9.4757,0.00225,0.00188,-0.00631,0.0,97.875,0.013,0.0,15.0,-0.025,15.0,54.0,0.0
11.521,0.8317,-0.3131,9.5994,0.0008,0.00098,-0.00781,0.0,98.025,0.013,0.0,15.0,-0.025,15.0,54.0,0.0
11.531,-0.2087,-0.1144,10.0079,-0.00383,-0.00445,0.0034,0.0,98.175,0.013,0.0,15.0,-0.025,15.0,54.0,0.0
11.541,0.2673,0.3509,9.9396,-0.00668,0.00797,-0.00069,0.0,98.325,0.013,0.0,15.0,-0.025,15.0,54.0,0.0
11.551,0.094,-0.2486,8.8353,0.00895,0.00085,-0.00957,0.0,98.475,0.012,0.0,15.0,-0.024,15.0,54.0,0.0
11.561,0.2641,-0.2356,9.3947,-0.00516,0.00509,0.00377,0.0,98.625,0.012,0.0,15.0,-0.024,15.0,54.0,0.0
11.571,-0.0684,0.1726,9.3867,0.00162,0.00188,0.00266,0.0,98.775,0.012,0.0,15.0,-0.024,15.0,54.0,0.0
11.581,0.2794,0.0978,10.0156,-0.00323,-0.00655,-0.00683,0.0,98.925,0.012,0.0,15.0,-0.024,15.0,54.0,0.0
11.591,0.6162,0.0212,9.3156,-0.00039,0.00557,0.00173,0.0,99.075,0.012,0.0,15.0,-0.023,15.0,54.0,0.0
11.601,-0.4372,0.1777,9.7069,-0.01333,0.00988,-0.00432,0.0,99.225,0.011,0.0,15.0,-0.023,15.0,54.0,0.0
11.611,-0.4576,-0.1038,9.9939,0.00413,-0.00849,-0.00105,0.0,99.375,0.011,0.0,15.0,-0.023,15.0,54.0,0.0
11.621,-0.011,-0.0367,9.8434,-0.00374,-0.00302,-0.00517,0.0,99.525,0.011,0.0,15.0,-0.023,15.0,54.0,0.0
11.631,-0.0545,0.3517,9.5641,-0.00126,0.00595,0.00037,0.0,99.675,0.011,0.0,15.0,-0.023,15.0,54.0,0.0
11.641,-0.1726,0.33,9.7981,-0.00755,0.00282,0.01102,0.0,99.825,0.01,0.0,15.0,-0.022,15.0,54.0,0.0
11.651,-0.0772,-0.2011,9.8099,-0.00124,0.00333,0.00522,0.0,99.975,0.01,0.0,15.0,-0.022,15.0,54.0,0.0
11.661,-0.0152,0.064,9.9043,-0.00801,-0.00181,0.00111,0.0,100.125,0.01,0.0,15.0,-0.022,15.0,54.0,0.0
11.671,0.1864,0.0783,9.7377,-0.00366,-0.00332,-0.0013,0.0,100.275,0.01,0.0,15.0,-0.022,15.0,54.0,0.0
11.681,0.0374,0.2471,10.3384,0.00258,0.00242,0.00284,0.0,100.425,0.01,0.0,15.0,-0.021,15.0,54.0,0.0
11.691,0.1224,-0.1844,9.7146,0.00376,-0.0022,0.00749,0.0,100.575,0.009,0.0,15.0,-0.021,15.0,54.0,0.0
11.701,0.3151,-0.2223,10.3493,0.00748,0.00615,0.00104,0.0,100.725,0.009,0.0,15.0,-0.021,15.0,54.0,0.0
11.711,0.1608,0.0158,9.5658,-0.00239,0.00661,-0.00528,0.0,100.875,0.009,0.0,15.0,-0.021,15.0,54.0,0.0
11.721,-0.2693,0.2185,10.0608,-0.0049,0.00165,0.00454,0.0,101.025,0.009,0.0,15.0,-0.021,15.0,54.0,0.0
11.731,-0.196,0.0148,9.6225,0.00188,-0.00091,0.00403,0.0,101.175,0.009,0.0,15.0,-0.02,15.0,54.0,0.0
11.741,-0.0021,-0.0012,10.3916,-0.0014,0.00283,-0.00184,0.0,101.325,0.008,0.0,15.0,-0.02,15.0,54.0,0.0
11.751,-0.2861,-0.2417,9.5453,-0.00285,-0.01481,0.00274,0.0,101.475,0.008,0.0,15.0,-0.02,15.0,54.0,0.0
11.761,-0.1397,-0.1865,9.4537,0.00617,-0.00933,0.00394,0.0,101.625,0.008,0.0,15.0,-0.02,15.0,54.0,0.0
11.771,-0.1851,0.3075,9.4388,-7e-05,0.00266,0.00296,0.0,101.775,0.008,0.0,15.0,-0.019,15.0,54.0,0.0
11.781,-0.3559,0.1508,10.2871,-0.00801,-0.00246,0.00066,0.0,101.925,0.008,0.0,15.0,-0.019,15.0,54.0,0.0
11.791,-0.4539,-0.1076,9.6101,0.00206,-0.0013,0.00024,0.0,102.075,0.007,0.0,15.0,-0.019,15.0,54.0,0.0
11.801,0.0868,-0.1323,9.3055,-0.00804,-0.0005,-0.00493,0.0,102.225,0.007,0.0,15.0,-0.019,15.0,54.0,0.0
11.811,-0.1112,-0.1159,9.5356,-0.00212,0.00798,-0.00393,0.0,102.375,0.007,0.0,15.0,-0.018,15.0,54.0,0.0
11.821,0.0838,0.2205,9.648,-0.00781,-0.00121,-0.01362,0.0,102.525,0.007,0.0,15.0,-0.018,15.0,54.0,0.0
11.831,0.2315,-0.0807,9.8487,-0.00183,0.00574,-0.00366,0.0,102.675,0.007,0.0,15.0,-0.018,15.0,54.0,0.0
11.841,-0.0349,0.1544,9.9529,-0.00139,0.00351,-0.00589,0.0,102.825,0.006,0.0,15.0,-0.018,15.0,54.0,0.0
11.851,0.2281,-0.114,10.2503,0.00632,0.00909,0.00208,0.0,102.975,0.006,0.0,15.0,-0.018,15.0,54.0,0.0
11.861,-0.3123,0.1609,9.7225,-0.00174,-0.00089,-0.00444,0.0,103.125,0.006,0.0,15.0,-0.017,15.0,54.0,0.0
11.871,0.0732,-0.1278,9.9195,1e-05,-0.00342,0.00246,0.0,103.275,0.006,0.0,15.0,-0.017,15.0,54.0,0.0
11.881,0.3434,0.2548,9.5962,0.00408,0.00172,-0.00112,0.0,103.425,0.006,0.0,15.0,-0.017,15.0,54.0,0.0
11.891,0.2255,0.1333,9.5468,-0.00475,-0.00426,-0.00094,0.0,103.575,0.006,0.0,15.0,-0.017,15.0,54.0,0.0
11.901,0.3989,0.0281,10.2002,-0.00478,0.00147,-0.00019,0.0,103.725,0.005,0.0,15.0,-0.016,15.0,54.0,0.0
11.911,-0.2306,-0.246,9.4566,-0.00073,0.00045,0.00394,0.0,103.875,0.005,0.0,15.0,-0.016,15.0,54.0,0.0
11.921,-0.1617,0.285,9.6605,0.00237,-0.00086,0.00308,0.0,104.025,0.005,0.0,15.0,-0.016,15.0,54.0,0.0
11.931,0.3109,0.1236,9.8407,-0.00517,0.0077,-0.00285,0.0,104.175,0.005,0.0,15.0,-0.016,15.0,54.0,0.0
11.941,0.2781,-0.3346,9.3509,0.0006,0.00746,0.00292,0.0,104.325,0.005,0.0,15.0,-0.015,15.0,54.0,0.0
11.951,-0.44,0.0936,10.2633,0.0018,-0.0076,0.00053,0.0,104.475,0.005,0.0,15.0,-0.015,15.0,54.0,0.0
11.961,-0.0663,0.3422,9.9622,-0.00234,-0.00588,-0.00014,0.0,104.625,0.004,0.0,15.0,-0.015,15.0,54.0,0.0
11.971,-0.0726,0.0777,9.4891,0.00936,0.00292,-7e-05,0.0,104.775,0.004,0.0,15.0,-0.015,15.0,54.0,0.0
11.981,0.0951,0.3805,9.7147,-0.00482,0.00149,-0.00463,0.0,104.925,0.004,0.0,15.0,-0.014,15.0,54.0,0.0
11.991,-0.2067,-0.4315,9.6684,0.0036,0.0034,0.00906,0.0,105.075,0.004,0.0,15.0,-0.014,15.0,54.0,0.0
12.001,0.0392,0.3933,9.8103,0.01068,-0.00325,-0.00785,0.0,105.225,0.004,0.0,15.0,-0.014,15.0,54.0,0.0
12.011,-0.3333,-0.0359,9.8456,0.0001,-0.00392,0.00404,0.0,105.375,0.004,0.0,15.0,-0.014,15.0,54.0,0.0
12.021,0.086,-0.18,9.6673,0.00238,-0.00478,-0.00062,0.0,105.525,0.004,0.0,15.0,-0.013,15.0,54.0,0.0
