timestamp_s,ax,ay,az,gx,gy,gz,pos_x,pos_y,pos_z,vel_x,vel_y,vel_z,speed_mps,speed_kmh,heading_deg
0.0,0.2528,1.4625,10.2532,0.002,0.00366,-0.0125,0.0,0.0,0.0,0.0,0.015,0.0,0.015,0.05,0.0
0.01,0.116,1.4689,10.4408,0.00332,-0.00658,0.00986,0.0,0.0,0.0,0.0,0.03,0.0,0.03,0.11,0.0
0.02,-0.2827,0.9766,10.1284,-0.00337,-0.00339,-0.00312,0.0,0.001,0.0,0.0,0.045,0.001,0.045,0.16,0.0
0.03,-0.3071,1.7802,10.0918,0.00924,0.00047,0.00411,0.0,0.002,0.0,0.0,0.06,0.001,0.06,0.22,0.0
0.04,-0.0417,1.6968,9.6841,-0.0042,0.00055,0.00083,0.0,0.002,0.0,0.0,0.075,0.001,0.075,0.27,0.0
0.05,0.1579,1.8392,9.4173,0.00267,0.00874,0.00012,0.0,0.003,0.0,0.0,0.09,0.001,0.09,0.32,0.0
0.06,0.0482,1.1869,9.5835,-0.00466,0.00456,0.00495,0.0,0.004,0.0,0.0,0.105,0.001,0.105,0.38,0.0
0.07,-0.1002,1.1719,10.2802,-0.00254,-0.00081,-0.0087,0.0,0.005,0.0,0.0,0.12,0.002,0.12,0.43,0.0
0.08,-0.0754,1.5131,9.6387,0.00113,0.00058,0.00014,0.0,0.007,0.0,0.0,0.135,0.002,0.135,0.49,0.0
0.09,-0.2137,0.9919,9.6295,-0.01094,-0.00209,0.00701,0.0,0.008,0.0,0.0,0.15,0.002,0.15,0.54,0.0
0.1,0.4516,1.278,9.9795,-0.0003,0.00999,0.00492,0.0,0.01,0.0,0.0,0.165,0.002,0.165,0.59,0.0
0.11,0.2377,1.5794,10.0664,-0.00709,0.003,0.00489,0.0,0.012,0.0,0.0,0.18,0.003,0.18,0.65,0.0
0.12,0.1214,1.3539,9.3398,-0.00802,0.00768,0.00235,0.0,0.014,0.0,0.0,0.195,0.003,0.195,0.7,0.0
0.13,-0.1999,1.2981,10.1993,-0.00736,-0.00569,-0.00503,0.0,0.016,0.0,0.0,0.21,0.003,0.21,0.76,0.0
0.14,-0.4307,1.6361,10.1228,0.00403,-0.0021,0.00369,0.0,0.018,0.0,0.0,0.225,0.003,0.225,0.81,0.0
0.15,-0.1633,1.5866,9.9721,-0.00318,-0.00611,-0.0036,0.0,0.02,0.0,0.0,0.24,0.004,0.24,0.86,0.0
0.16,-0.1068,1.1204,10.0144,-0.00146,-0.00347,-0.00128,0.0,0.023,0.0,0.0,0.255,0.004,0.255,0.92,0.0
0.17,-0.126,1.6254,10.1542,0.00413,0.00682,0.00142,0.0,0.026,0.0,0.0,0.27,0.004,0.27,0.97,0.0
0.18,0.2549,1.5667,9.7999,-0.0095,0.00308,-0.00324,0.0,0.029,0.0,0.0,0.285,0.004,0.285,1.03,0.0
0.19,0.3525,1.4266,9.7982,-0.00302,0.00571,-0.00264,0.0,0.032,0.0,0.0,0.3,0.005,0.3,1.08,0.0
0.2,-0.2947,1.5734,10.1479,0.00519,0.00481,-0.00078,0.0,0.035,0.001,0.0,0.315,0.005,0.315,1.13,0.0
0.21,0.1769,1.0953,10.2576,0.00545,0.00416,0.00443,0.0,0.038,0.001,0.0,0.33,0.005,0.33,1.19,0.0
0.22,0.1154,1.6074,9.5664,0.00182,-0.00338,0.00175,0.0,0.041,0.001,0.0,0.345,0.005,0.345,1.24,0.0
0.23,-0.0164,1.1931,9.838,-0.0001,0.00179,-0.00277,0.0,0.045,0.001,0.0,0.36,0.006,0.36,1.3,0.0
0.24,0.3666,1.6402,9.6307,0.00116,0.00086,-0.00014,0.0,0.049,0.001,0.0,0.375,0.006,0.375,1.35,0.0
0.25,-0.3437,1.3849,9.3012,-0.00216,0.0031,-0.00129,0.0,0.053,0.001,0.0,0.39,0.006,0.39,1.4,0.0
0.26,-0.2098,1.5918,10.5393,-0.00038,0.00074,-0.00655,0.0,0.057,0.001,0.0,0.405,0.006,0.405,1.46,0.0
0.27,0.3286,1.5881,9.8745,0.00113,-0.00403,-0.00736,0.0,0.061,0.001,0.0,0.42,0.007,0.42,1.51,0.0
0.28,-0.0413,1.57,9.4927,0.00564,-0.00522,-0.00235,0.0,0.065,0.001,0.0,0.435,0.007,0.435,1.57,0.0
0.29,-0.4607,1.4945,9.5362,-0.00129,0.00131,0.0036,0.0,0.07,0.001,0.0,0.45,0.007,0.45,1.62,0.0
0.3,-0.2449,1.1968,9.4776,0.00336,-0.00543,0.00162,0.0,0.074,0.001,0.0,0.465,0.007,0.465,1.67,0.0
0.31,-0.5056,1.38,10.0812,0.00315,-0.00647,-0.00229,0.0,0.079,0.001,0.0,0.48,0.008,0.48,1.73,0.0
0.32,0.2224,1.1722,10.6111,0.00749,-0.00466,0.00071,0.0,0.084,0.001,0.0,0.495,0.008,0.495,1.78,0.0
0.33,0.2328,1.355,9.6251,0.00421,-0.00642,-0.01197,0.0,0.089,0.001,0.0,0.51,0.008,0.51,1.84,0.0
0.34,0.0154,1.6921,10.1264,-0.00396,0.00293,-0.00662,0.0,0.095,0.001,0.0,0.525,0.008,0.525,1.89,0.0
0.35,-0.275,1.6258,10.3592,0.00389,-0.00521,0.00687,0.0,0.1,0.002,0.0,0.54,0.009,0.54,1.94,0.0
0.36,-0.4002,1.7131,9.9941,0.00713,0.00499,0.00388,0.0,0.105,0.002,0.0,0.555,0.009,0.555,2.0,0.0
0.37,-0.0317,1.4662,10.1659,-0.00237,-0.00681,-0.00069,0.0,0.111,0.002,0.0,0.57,0.009,0.57,2.05,0.0
0.38,-0.1654,1.694,10.0178,0.0085,-0.00508,-0.00896,0.0,0.117,0.002,0.0,0.585,0.009,0.585,2.11,0.0
0.39,0.0769,1.439,9.8417,-9e-05,0.00429,-0.00496,0.0,0.123,0.002,0.0,0.6,0.01,0.6,2.16,0.0
0.4,0.1968,1.6859,9.3671,0.00018,-0.00355,0.00666,0.0,0.129,0.002,0.0,0.615,0.01,0.615,2.21,0.0
0.41,-0.0554,1.3499,9.8639,0.01133,0.00154,0.00264,0.0,0.135,0.002,0.0,0.63,0.01,0.63,2.27,0.0
0.42,0.3722,1.4601,9.5267,-2e-05,-0.01131,0.00118,0.0,0.142,0.002,0.0,0.645,0.01,0.645,2.32,0.0
0.43,0.0992,1.6232,9.5347,-0.0002,-0.00231,0.0043,0.0,0.149,0.002,0.0,0.66,0.011,0.66,2.38,0.0
0.44,-0.2956,1.3626,9.8071,0.00277,-0.00963,-0.0026,0.0,0.155,0.002,0.0,0.675,0.011,0.675,2.43,0.0
0.45,0.4503,1.5526,9.6118,-0.00258,0.00563,-0.00027,0.0,0.162,0.003,0.0,0.69,0.011,0.69,2.48,0.0
0.46,0.0382,1.7761,10.2184,0.00266,0.00294,-0.00131,0.0,0.169,0.003,0.0,0.705,0.011,0.705,2.54,0.0
0.47,0.41,1.7251,10.2111,-0.0058,0.00713,-0.00241,0.0,0.176,0.003,0.0,0.72,0.012,0.72,2.59,0.0
0.48,-0.383,1.6675,9.5775,-0.00075,-0.00037,0.00282,0.0,0.184,0.003,0.0,0.735,0.012,0.735,2.65,0.0
0.49,0.0507,1.712,9.5355,-0.00024,-0.00759,0.00222,0.0,0.191,0.003,0.0,0.75,0.012,0.75,2.7,0.0
0.5,0.0601,1.4743,9.812,0.00652,-0.00214,-0.00349,0.0,0.199,0.003,0.0,0.765,0.012,0.765,2.75,0.0
0.51,-0.3732,1.6869,9.7611,0.0062,0.01059,0.00931,0.0,0.207,0.003,0.0,0.78,0.013,0.78,2.81,0.0
0.52,0.4744,1.4568,9.2385,-0.01156,-0.00254,-0.00051,0.0,0.215,0.003,0.0,0.795,0.013,0.795,2.86,0.0
0.53,0.3817,1.1532,9.369,-0.00805,-0.00161,8e-05,0.0,0.223,0.004,0.0,0.81,0.013,0.81,2.92,0.0
0.54,-0.0968,1.2619,9.3384,0.00395,0.00393,-0.00073,0.0,0.231,0.004,0.0,0.825,0.013,0.825,2.97,0.0
0.55,-0.1035,1.5683,10.5983,0.01134,-0.00136,0.00096,0.0,0.239,0.004,0.0,0.84,0.014,0.84,3.02,0.0
0.56,0.0643,1.447,9.7066,-0.01009,0.00682,0.00065,0.0,0.248,0.004,0.0,0.855,0.014,0.855,3.08,0.0
0.57,0.0885,1.5393,9.4684,2e-05,0.00697,-0.00285,0.0,0.257,0.004,0.0,0.87,0.014,0.87,3.13,0.0
0.58,0.1196,1.513,10.3663,0.00666,-0.00144,0.00181,0.0,0.266,0.004,0.0,0.885,0.014,0.885,3.19,0.0
0.59,-0.0481,1.1564,10.1508,0.00209,-0.00225,-0.00357,0.0,0.275,0.004,0.0,0.9,0.015,0.9,3.24,0.0
0.6,-0.2387,1.4263,10.1805,-0.00353,0.00426,0.00137,0.0,0.284,0.005,0.0,0.915,0.015,0.915,3.29,0.0
0.61,0.1065,1.4318,9.3769,-0.00171,-0.00528,-0.00186,0.0,0.293,0.005,0.0,0.93,0.015,0.93,3.35,0.0
0.62,-0.0888,1.7999,9.379,0.00309,0.00498,-0.00086,0.0,0.302,0.005,0.0,0.945,0.015,0.945,3.4,0.0
0.63,-0.0253,1.036,10.0349,0.00072,-0.00779,0.00611,0.0,0.312,0.005,0.0,0.96,0.015,0.96,3.46,0.0
0.64,0.1592,1.6688,9.9441,0.0063,0.00124,-0.01215,0.0,0.322,0.005,0.0,0.975,0.016,0.975,3.51,0.0
0.65,0.1273,1.799,9.6399,-0.0048,0.00035,0.00425,0.0,0.332,0.005,0.0,0.99,0.016,0.99,3.56,0.0
0.66,-0.0787,1.5701,10.0514,-0.00201,-0.0118,-0.00081,0.0,0.342,0.005,0.0,1.005,0.016,1.005,3.62,0.0
0.67,0.0284,1.6833,9.601,0.00255,0.00067,0.00385,0.0,0.352,0.006,0.0,1.02,0.016,1.02,3.67,0.0
0.68,-0.1624,1.8355,9.3421,-0.00177,-0.00554,-0.0056,0.0,0.362,0.006,0.0,1.035,0.017,1.035,3.73,0.0
0.69,0.0123,1.5873,9.9406,-0.002,-0.0025,-0.00912,0.0,0.373,0.006,0.0,1.05,0.017,1.05,3.78,0.0
0.7,-0.2668,1.4651,9.6756,0.00969,-0.00463,0.00793,0.0,0.383,0.006,0.0,1.065,0.017,1.065,3.83,0.0
0.71,0.2933,1.391,9.7754,-0.00269,-0.00645,-0.0033,0.0,0.394,0.006,0.0,1.08,0.017,1.08,3.89,0.0
0.72,-0.2118,1.2522,9.5224,0.00096,0.00955,0.00197,0.0,0.405,0.006,0.0,1.095,0.018,1.095,3.94,0.0
0.73,-0.3315,1.6049,9.2575,-0.00896,0.00266,-0.00558,0.0,0.416,0.007,0.0,1.11,0.018,1.11,4.0,0.0
0.74,-0.0703,1.6543,9.3378,-0.01354,0.00283,0.00148,0.0,0.428,0.007,0.0,1.125,0.018,1.125,4.05,0.0
0.75,0.3101,1.4181,9.2218,-0.00029,-0.00525,-0.0,0.0,0.439,0.007,0.0,1.14,0.018,1.14,4.1,0.0
0.76,0.4858,1.1802,9.5627,-0.00468,0.01013,-0.00344,0.0,0.45,0.007,0.0,1.155,0.019,1.155,4.16,0.0
0.77,-0.1211,1.3861,10.1058,0.00459,-0.00125,0.00627,0.0,0.462,0.007,0.0,1.17,0.019,1.17,4.21,0.0
0.78,0.2264,1.7151,9.2455,-0.00065,-0.00938,-0.00179,0.0,0.474,0.008,0.0,1.185,0.019,1.185,4.27,0.0
0.79,-0.0744,1.8225,9.6905,-0.00328,0.00969,-0.00122,0.0,0.486,0.008,0.0,1.2,0.019,1.2,4.32,0.0
0.8,0.0252,1.5485,9.7396,-0.00262,0.00483,-0.00681,0.0,0.498,0.008,0.0,1.215,0.019,1.215,4.37,0.0
0.81,-0.1253,1.58,9.8909,0.0069,0.00632,-0.00026,0.0,0.51,0.008,0.0,1.23,0.02,1.23,4.43,0.0
0.82,0.0412,1.3145,9.2343,-0.00314,-0.00545,-0.00148,0.0,0.523,0.008,0.0,1.245,0.02,1.245,4.48,0.0
0.83,0.0457,1.5657,9.718,0.00489,-0.00162,0.00385,0.0,0.536,0.009,0.0,1.26,0.02,1.26,4.54,0.0
0.84,-0.3304,1.5389,9.9066,0.00626,-0.00915,-0.00117,0.0,0.548,0.009,0.0,1.275,0.02,1.275,4.59,0.0
0.85,-0.1309,1.5535,9.6573,-0.00144,0.01023,-0.00571,0.0,0.561,0.009,0.0,1.29,0.021,1.29,4.64,0.0
0.86,0.3996,1.704,9.151,0.00256,-0.00241,0.00076,0.0,0.574,0.009,0.0,1.305,0.021,1.305,4.7,0.0
0.87,0.0683,1.5276,9.3175,0.0015,-0.00247,-0.00032,0.0,0.587,0.009,0.0,1.32,0.021,1.32,4.75,0.0
0.88,0.0902,1.6811,9.8966,0.00223,-0.00479,-0.00409,0.0,0.601,0.01,0.0,1.335,0.021,1.335,4.81,0.0
0.89,-0.1416,1.4506,9.5654,0.00621,0.00115,-0.00387,0.0,0.614,0.01,0.0,1.35,0.022,1.35,4.86,0.0
0.9,0.2774,1.6591,9.6235,0.00039,-0.00361,0.00467,0.0,0.628,0.01,0.0,1.365,0.022,1.365,4.91,0.0
0.91,0.1901,1.1382,10.5664,-0.00746,-0.00229,-0.00422,0.0,0.642,0.01,0.0,1.38,0.022,1.38,4.97,0.0
0.92,0.2685,1.85,9.3922,0.00468,0.00138,-0.00031,0.0,0.656,0.011,0.0,1.395,0.022,1.395,5.02,0.0
0.93,0.0478,1.3327,9.9657,0.00072,0.00272,-0.00788,0.0,0.67,0.011,0.0,1.41,0.022,1.41,5.08,0.0
0.94,-0.1059,1.4961,9.3487,0.00364,0.00049,-0.00258,0.0,0.684,0.011,0.0,1.425,0.023,1.425,5.13,0.0
0.95,-0.1305,1.2555,9.5273,0.00214,-0.00586,0.00187,0.0,0.698,0.011,0.0,1.44,0.023,1.44,5.18,0.0
0.96,-0.3183,1.2393,9.7133,0.01013,-0.00495,-0.00927,0.0,0.713,0.011,0.0,1.455,0.023,1.455,5.24,0.0
0.97,0.3685,1.5061,9.8825,-0.00589,-0.00252,0.00067,0.0,0.728,0.012,0.0,1.47,0.023,1.47,5.29,0.0
0.98,-0.1732,1.3866,10.126,-0.00043,-0.00352,0.00023,0.0,0.742,0.012,0.0,1.485,0.024,1.485,5.35,0.0
0.99,-0.0301,1.1798,9.8997,0.00331,0.00103,-0.0103,0.0,0.758,0.012,0.0,1.5,0.024,1.5,5.4,0.0
1.0,0.1672,1.6203,9.7163,-0.00162,0.00128,0.00586,0.0,0.773,0.012,0.0,1.515,0.024,1.515,5.45,0.0
1.01,-0.132,1.3434,9.6719,0.00426,-0.00705,0.00485,0.0,0.788,0.013,0.0,1.53,0.024,1.53,5.51,0.0
1.02,-0.0138,1.103,9.0206,-0.0028,0.00826,0.00263,0.0,0.803,0.013,0.0,1.545,0.024,1.545,5.56,0.0
1.03,0.4572,1.4334,10.221,0.00734,0.00345,-0.00946,0.0,0.819,0.013,0.0,1.56,0.025,1.56,5.62,0.0
1.04,0.4734,1.8264,9.3251,-0.00949,-0.00592,0.00062,0.0,0.835,0.013,0.0,1.575,0.025,1.575,5.67,0.0
1.05,-0.1014,1.5711,9.7327,-0.00033,0.00522,0.00434,0.0,0.851,0.014,0.0,1.59,0.025,1.59,5.72,0.0
1.06,-0.1969,1.7986,10.0577,-0.00362,-0.00294,-0.00068,0.0,0.867,0.014,0.0,1.605,0.025,1.605,5.78,0.0
1.07,-0.0309,1.5109,9.6793,0.00849,-0.00676,-0.00212,0.0,0.883,0.014,0.0,1.62,0.025,1.62,5.83,0.0
1.08,-0.5045,1.761,9.5194,-0.0018,-0.00525,-0.00625,0.0,0.899,0.014,0.0,1.635,0.026,1.635,5.89,0.0
1.09,-0.2744,1.3749,10.4616,-0.00013,-0.00094,-0.01003,0.0,0.916,0.015,0.0,1.65,0.026,1.65,5.94,0.0
1.1,-0.0046,1.5066,9.4262,-0.00693,-0.00779,0.00195,0.0,0.932,0.015,0.0,1.665,0.026,1.665,5.99,0.0
1.11,-0.1206,1.7803,10.0717,0.00685,-0.00129,0.0009,0.0,0.949,0.015,0.0,1.68,0.026,1.68,6.05,0.0
1.12,-0.4309,1.5492,9.7539,-0.00309,-0.00442,-0.00174,0.0,0.966,0.015,0.0,1.695,0.027,1.695,6.1,0.0
1.13,-0.1706,1.2798,10.307,0.00375,0.00252,-0.00162,0.0,0.983,0.016,0.0,1.71,0.027,1.71,6.16,0.0
1.14,0.1412,1.4858,10.0518,-0.00118,-0.00515,0.00557,0.0,1.0,0.016,0.0,1.725,0.027,1.725,6.21,0.0
1.15,-0.5234,1.8384,9.6324,0.00109,0.00035,-0.00328,0.0,1.018,0.016,0.0,1.74,0.027,1.74,6.26,0.0
1.16,-0.0469,1.6361,10.4879,0.01088,0.0028,-0.00523,0.0,1.035,0.016,0.0,1.755,0.027,1.755,6.32,0.0
1.17,0.29,1.5429,9.9015,-0.00334,0.00056,0.00176,0.0,1.053,0.017,0.0,1.77,0.028,1.77,6.37,0.0
1.18,-0.3709,1.3233,10.1577,-0.00078,0.00523,-0.00206,0.0,1.071,0.017,0.0,1.785,0.028,1.785,6.43,0.0
1.19,0.3118,1.5585,9.5012,-0.00061,-0.00705,0.00186,0.0,1.089,0.017,0.0,1.8,0.028,1.8,6.48,0.0
1.2,0.4295,1.1564,9.6505,0.00554,0.0004,0.00262,0.0,1.107,0.018,0.0,1.815,0.028,1.815,6.53,0.0
1.21,0.0927,1.1149,9.7868,-0.00156,-0.00856,0.00756,0.0,1.125,0.018,0.0,1.83,0.028,1.83,6.59,0.0
1.22,-0.0299,1.6164,9.5932,-0.00884,-0.00393,0.00568,0.0,1.144,0.018,0.0,1.845,0.029,1.845,6.64,0.0
1.23,0.078,1.6246,10.041,-0.00085,-0.00346,-0.00238,0.0,1.162,0.018,0.0,1.86,0.029,1.86,6.7,0.0
1.24,0.3616,1.7069,9.571,-0.00397,0.00943,0.00462,0.0,1.181,0.019,0.0,1.875,0.029,1.875,6.75,0.0
1.25,0.0276,1.219,9.6828,-0.00758,0.00592,0.00605,0.0,1.2,0.019,0.0,1.89,0.029,1.89,6.8,0.0
1.26,0.5118,1.5875,9.715,0.00063,0.00133,0.00945,0.0,1.219,0.019,0.0,1.905,0.029,1.905,6.86,0.0
1.27,0.3028,1.5066,9.207,-0.00159,0.00852,0.00085,0.0,1.238,0.02,0.0,1.92,0.03,1.92,6.91,0.0
1.28,-0.1323,1.6578,9.5713,0.00902,0.00367,-0.00014,0.0,1.258,0.02,0.0,1.935,0.03,1.935,6.97,0.0
1.29,0.0804,1.5121,9.6152,0.00959,-0.00184,0.00078,0.0,1.277,0.02,0.0,1.95,0.03,1.95,7.02,0.0
1.3,-0.3263,1.3585,9.4299,-0.00362,-0.00149,-0.00565,0.0,1.297,0.021,0.0,1.965,0.03,1.965,7.07,0.0
1.31,-0.2624,1.6908,9.7043,0.00174,0.0006,7e-05,0.0,1.317,0.021,0.0,1.98,0.03,1.98,7.13,0.0
1.32,0.4049,1.4117,9.6973,-0.00325,0.00909,0.00051,0.0,1.337,0.021,0.0,1.995,0.031,1.995,7.18,0.0
1.33,-0.123,1.4896,9.8983,0.00232,-0.00759,0.00293,0.0,1.357,0.021,0.0,2.01,0.031,2.01,7.24,0.0
1.34,-0.1071,1.6833,10.4879,0.00044,0.00347,-0.00276,0.0,1.377,0.022,0.0,2.025,0.031,2.025,7.29,0.0
1.35,0.3138,1.5559,9.9755,0.00072,0.00046,0.00714,0.0,1.397,0.022,0.0,2.04,0.031,2.04,7.34,0.0
1.36,-0.1629,1.3627,10.1991,0.00602,-0.00806,-0.00805,0.0,1.418,0.022,0.0,2.055,0.031,2.055,7.4,0.0
1.37,0.0666,1.4792,10.06,-0.00652,-0.00355,-0.00104,0.0,1.439,0.023,0.0,2.07,0.032,2.07,7.45,0.0
1.38,-0.0675,1.6845,9.4537,0.00116,-0.0006,-0.00112,0.0,1.459,0.023,0.0,2.085,0.032,2.085,7.51,0.0
1.39,-0.1985,1.2338,10.3313,-0.0078,0.00242,0.00197,0.0,1.48,0.023,0.0,2.1,0.032,2.1,7.56,0.0
1.4,-0.311,1.6968,10.2698,0.00346,-0.00059,0.00872,0.0,1.502,0.024,0.0,2.115,0.032,2.115,7.61,0.0
1.41,-0.591,1.5973,9.7304,-0.00782,0.00042,-0.00226,0.0,1.523,0.024,0.0,2.13,0.032,2.13,7.67,0.0
1.42,0.1899,1.5238,9.8741,-0.00315,0.00724,-0.00255,0.0,1.544,0.024,0.0,2.145,0.033,2.145,7.72,0.0
1.43,-0.3149,1.4043,9.3897,-0.0006,-0.0038,0.00017,0.0,1.566,0.025,0.0,2.16,0.033,2.16,7.78,0.0
1.44,-0.1373,1.5355,9.7956,0.00921,0.00019,0.00198,0.0,1.588,0.025,0.0,2.175,0.033,2.175,7.83,0.0
1.45,0.1453,1.3677,10.1815,0.00306,-0.00826,-0.00616,0.0,1.61,0.025,0.0,2.19,0.033,2.19,7.88,0.0
1.46,-0.0808,1.4025,9.4711,0.00677,-0.00281,-0.00012,0.0,1.632,0.026,0.0,2.205,0.033,2.205,7.94,0.0
1.47,-0.1539,1.3049,10.2123,0.00794,0.00234,-0.00042,0.0,1.654,0.026,0.0,2.22,0.034,2.22,7.99,0.0
1.48,-0.2644,1.4878,10.0684,0.00467,0.00338,-0.00478,0.0,1.676,0.026,0.0,2.235,0.034,2.235,8.05,0.0
1.49,-0.4263,1.3059,10.3948,0.00934,-0.00414,-0.00056,0.0,1.699,0.027,0.0,2.25,0.034,2.25,8.1,0.0
1.5,-0.1564,1.5837,10.2178,0.00753,0.00217,0.00128,0.0,1.721,0.027,0.0,2.265,0.034,2.265,8.15,0.0
1.51,0.2679,1.8205,9.2966,-0.00737,-0.0001,-0.0001,0.0,1.744,0.027,0.0,2.28,0.034,2.28,8.21,0.0
1.52,0.1317,1.3338,9.6391,0.00412,-7e-05,0.00502,0.0,1.767,0.028,0.0,2.295,0.034,2.295,8.26,0.0
1.53,-0.2056,1.2904,9.5792,0.00246,-0.00373,-0.00732,0.0,1.79,0.028,0.0,2.31,0.035,2.31,8.32,0.0
1.54,0.1998,1.6298,9.6016,0.00332,-0.00592,0.00283,0.0,1.813,0.028,0.0,2.325,0.035,2.325,8.37,0.0
1.55,-0.2917,1.6877,9.8815,-0.00213,-0.00119,-0.00026,0.0,1.837,0.029,0.0,2.34,0.035,2.34,8.42,0.0
1.56,0.1084,1.8635,9.497,-0.00342,0.00574,0.0009,0.0,1.86,0.029,0.0,2.355,0.035,2.355,8.48,0.0
1.57,0.0561,1.5036,9.5231,-0.00403,0.00239,0.00711,0.0,1.884,0.029,0.0,2.37,0.035,2.37,8.53,0.0
1.58,0.0285,1.3765,10.4079,-0.00319,-0.00057,0.00428,0.0,1.908,0.03,0.0,2.385,0.036,2.385,8.59,0.0
1.59,0.3188,1.632,9.1518,0.00038,0.00362,0.00037,0.0,1.932,0.03,0.0,2.4,0.036,2.4,8.64,0.0
1.6,0.2725,1.5094,9.4651,0.00851,0.0037,-0.00461,0.0,1.956,0.031,0.0,2.415,0.036,2.415,8.69,0.0
1.61,0.0485,1.8277,8.7273,0.00474,0.00624,-0.00182,0.0,1.98,0.031,0.0,2.43,0.036,2.43,8.75,0.0
1.62,-0.0548,1.7297,9.668,-0.0006,-0.00301,0.0056,0.0,2.005,0.031,0.0,2.445,0.036,2.445,8.8,0.0
1.63,0.1087,1.2505,10.2295,-0.0001,-0.00129,-0.00123,0.0,2.029,0.032,0.0,2.46,0.036,2.46,8.86,0.0
1.64,-0.0114,1.2188,9.8,0.00411,-0.00372,-0.0018,0.0,2.054,0.032,0.0,2.475,0.037,2.475,8.91,0.0
1.65,-0.0478,1.4488,9.4269,-0.00599,0.00097,-0.00135,0.0,2.079,0.032,0.0,2.49,0.037,2.49,8.96,0.0
1.66,0.0832,1.5708,9.9632,0.00186,-0.00031,0.00293,0.0,2.104,0.033,0.0,2.505,0.037,2.505,9.02,0.0
1.67,0.0642,1.5126,10.4651,0.00022,0.00956,-0.0043,0.0,2.129,0.033,0.0,2.52,0.037,2.52,9.07,0.0
1.68,0.1256,1.4505,9.8444,-0.00632,-0.00326,0.00053,0.0,2.155,0.033,0.0,2.535,0.037,2.535,9.13,0.0
1.69,-0.0293,1.0864,10.2134,-0.00395,-0.00411,0.00242,0.0,2.18,0.034,0.0,2.55,0.037,2.55,9.18,0.0
1.7,0.2873,1.1251,9.0736,0.00226,-0.00278,0.00073,0.0,2.206,0.034,0.0,2.565,0.038,2.565,9.23,0.0
1.71,-0.2986,1.4873,10.0007,-0.0068,0.00134,0.00109,0.0,2.232,0.035,0.0,2.58,0.038,2.58,9.29,0.0
1.72,0.3428,1.5475,10.178,0.00876,0.00522,0.00679,0.0,2.258,0.035,0.0,2.595,0.038,2.595,9.34,0.0
1.73,-0.3194,1.6652,9.5407,0.00559,0.00442,0.00276,0.0,2.284,0.035,0.0,2.61,0.038,2.61,9.4,0.0
1.74,-0.0003,1.4944,9.4009,0.00031,0.00292,0.00585,0.0,2.31,0.036,0.0,2.625,0.038,2.625,9.45,0.0
1.75,0.3016,1.4349,10.3927,0.00125,-0.00323,-0.00177,0.0,2.336,0.036,0.0,2.64,0.038,2.64,9.5,0.0
1.76,0.4369,1.8622,10.1732,0.00839,-0.00617,0.00424,0.0,2.363,0.036,0.0,2.655,0.039,2.655,9.56,0.0
1.77,0.0165,1.6573,9.3847,0.00027,0.00785,0.00336,0.0,2.39,0.037,0.0,2.67,0.039,2.67,9.61,0.0
1.78,0.1013,1.4067,9.6046,-0.01043,-0.00556,-0.00212,0.0,2.416,0.037,0.0,2.685,0.039,2.685,9.67,0.0
1.79,-0.0778,1.7095,9.2904,0.00075,0.00515,0.00708,0.0,2.443,0.038,0.0,2.7,0.039,2.7,9.72,0.0
1.8,0.2278,1.6232,10.0237,-0.00197,0.00456,-0.00685,0.0,2.471,0.038,0.0,2.715,0.039,2.715,9.77,0.0
1.81,-0.547,1.5043,9.1972,-0.00304,0.00146,0.00183,0.0,2.498,0.038,0.0,2.73,0.039,2.73,9.83,0.0
1.82,-0.0668,1.2213,10.0889,0.00198,0.00396,-0.0002,0.0,2.525,0.039,0.0,2.745,0.039,2.745,9.88,0.0
1.83,-0.1627,1.5553,9.867,-0.00656,-0.0026,-0.00151,0.0,2.553,0.039,0.0,2.76,0.04,2.76,9.94,0.0
1.84,0.1394,1.774,9.5647,0.00511,-0.0051,0.0054,0.0,2.581,0.04,0.0,2.775,0.04,2.775,9.99,0.0
1.85,-0.3353,1.472,9.1262,-0.00343,0.00117,-0.00447,0.0,2.609,0.04,0.0,2.79,0.04,2.79,10.04,0.0
1.86,0.346,1.6008,9.4499,-0.00117,0.00267,-0.00269,0.0,2.637,0.04,0.0,2.805,0.04,2.805,10.1,0.0
1.87,0.0054,1.1467,10.2544,0.00799,-0.00589,-0.00821,0.0,2.665,0.041,0.0,2.82,0.04,2.82,10.15,0.0
1.88,0.0866,1.5588,9.7296,0.00626,-0.00065,0.00021,0.0,2.693,0.041,0.0,2.835,0.04,2.835,10.21,0.0
1.89,-0.1194,1.6103,9.6154,-0.0025,0.00118,-0.01114,0.0,2.722,0.042,0.0,2.85,0.041,2.85,10.26,0.0
1.9,-0.3926,1.4319,9.8193,0.00541,0.00499,0.00421,0.0,2.75,0.042,0.0,2.865,0.041,2.865,10.31,0.0
1.91,0.0577,1.5155,10.1328,-0.00191,0.00326,-0.00741,0.0,2.779,0.042,0.0,2.88,0.041,2.88,10.37,0.0
1.92,0.3469,1.4319,9.4335,0.00501,-0.00079,-0.00112,0.0,2.808,0.043,0.0,2.895,0.041,2.895,10.42,0.0
1.93,-0.3081,1.1575,10.0596,0.00424,-0.00083,0.00062,0.0,2.837,0.043,0.0,2.91,0.041,2.91,10.48,0.0
1.94,0.108,1.5085,9.5001,-0.00498,-0.00236,0.00432,0.0,2.866,0.044,0.0,2.925,0.041,2.925,10.53,0.0
1.95,0.4075,1.8409,10.5046,-0.00781,-0.00523,0.00225,0.0,2.896,0.044,0.0,2.94,0.041,2.94,10.58,0.0
1.96,0.4678,1.6003,9.6856,0.00925,0.0024,-0.00202,0.0,2.925,0.045,0.0,2.955,0.042,2.955,10.64,0.0
1.97,0.0998,1.6416,9.9337,-0.0028,0.00038,-0.00058,0.0,2.955,0.045,0.0,2.97,0.042,2.97,10.69,0.0
1.98,-0.4241,1.3582,9.8081,-0.00453,0.0002,0.00879,0.0,2.985,0.045,0.0,2.985,0.042,2.985,10.75,0.0
1.99,-0.0863,1.6324,9.4079,0.00661,-0.00317,-0.00084,0.0,3.015,0.046,0.0,3.0,0.042,3.0,10.8,0.0
2.0,0.2629,1.625,9.9393,-0.00103,-0.00219,-0.00333,0.0,3.045,0.046,0.0,3.015,0.042,3.015,10.85,0.0
2.01,-0.1981,1.6356,9.6321,-0.01105,0.00858,-0.00125,0.0,3.075,0.047,0.0,3.03,0.042,3.03,10.91,0.0
2.02,0.3076,1.6629,9.0668,-0.00634,0.00281,-0.00294,0.0,3.106,0.047,0.0,3.045,0.042,3.045,10.96,0.0
2.03,-0.1688,1.7182,9.8802,-0.00125,-0.00169,-0.00238,0.0,3.136,0.047,0.0,3.06,0.042,3.06,11.02,0.0
2.04,0.1322,1.8018,9.6868,-0.00559,2e-05,-0.01418,0.0,3.167,0.048,0.0,3.075,0.043,3.075,11.07,0.0
2.05,0.0828,1.4372,9.2398,0.00246,-0.00648,-0.00875,0.0,3.198,0.048,0.0,3.09,0.043,3.09,11.12,0.0
2.06,-0.1129,1.1936,10.1912,0.01038,-0.00715,0.00544,0.0,3.229,0.049,0.0,3.105,0.043,3.105,11.18,0.0
2.07,-0.0134,1.4862,10.1332,-0.00039,-0.00344,-0.00043,0.0,3.26,0.049,0.0,3.12,0.043,3.12,11.23,0.0
2.08,-0.0688,1.5004,9.5458,0.00051,-0.00728,0.00833,0.0,3.292,0.05,0.0,3.135,0.043,3.135,11.29,0.0
2.09,-0.1053,1.591,9.7715,0.0035,0.01099,-0.00558,0.0,3.323,0.05,0.0,3.15,0.043,3.15,11.34,0.0
2.1,0.2398,1.224,9.3622,0.00242,0.01098,0.00068,0.0,3.355,0.05,0.0,3.165,0.043,3.165,11.39,0.0
2.11,0.3364,1.7494,9.8778,-0.0008,-0.00246,-0.00016,0.0,3.387,0.051,0.0,3.18,0.043,3.18,11.45,0.0
2.12,-0.3244,1.5717,10.1181,7e-05,0.00117,0.00059,0.0,3.419,0.051,0.0,3.195,0.044,3.195,11.5,0.0
2.13,-0.1572,1.4785,10.2715,-0.00296,0.0026,-0.00546,0.0,3.451,0.052,0.0,3.21,0.044,3.21,11.56,0.0
2.14,-0.0122,1.348,9.6729,-0.00398,0.01329,-0.00926,0.0,3.483,0.052,0.0,3.225,0.044,3.225,11.61,0.0
2.15,-0.0401,1.2338,10.3086,0.00087,0.00446,0.0082,0.0,3.515,0.053,0.0,3.24,0.044,3.24,11.66,0.0
2.16,-0.0374,1.6572,9.5306,-0.00044,-0.00202,0.00508,0.0,3.548,0.053,0.0,3.255,0.044,3.255,11.72,0.0
2.17,-0.2901,1.6083,10.208,0.00656,-0.00515,-0.00594,0.0,3.581,0.054,0.0,3.27,0.044,3.27,11.77,0.0
2.18,-0.2264,1.8027,9.6093,0.00333,-0.00111,-0.0033,0.0,3.613,0.054,0.0,3.285,0.044,3.285,11.83,0.0
2.19,0.1849,1.5831,9.8351,-0.00224,0.00333,-0.00317,0.0,3.646,0.054,0.0,3.3,0.044,3.3,11.88,0.0
2.2,-0.017,1.4261,9.5992,0.00334,-0.00147,-0.00638,0.0,3.68,0.055,0.0,3.315,0.045,3.315,11.93,0.0
2.21,-0.0226,1.7346,10.0368,0.00116,0.00667,-0.00184,0.0,3.713,0.055,0.0,3.33,0.045,3.33,11.99,0.0
2.22,-0.1519,1.1848,9.9356,-0.00461,-0.01138,0.00961,0.0,3.746,0.056,0.0,3.345,0.045,3.345,12.04,0.0
2.23,-0.4632,1.2913,9.3767,-0.00885,-0.00792,-0.00045,0.0,3.78,0.056,0.0,3.36,0.045,3.36,12.1,0.0
2.24,-0.0254,1.5858,10.0869,-0.00528,0.00276,-0.00231,0.0,3.814,0.057,0.0,3.375,0.045,3.375,12.15,0.0
2.25,0.2018,1.3793,10.2057,-0.00174,0.00251,-0.00925,0.0,3.848,0.057,0.0,3.39,0.045,3.39,12.2,0.0
2.26,-0.3014,1.4687,9.4467,0.00475,0.00211,-0.00449,0.0,3.882,0.058,0.0,3.405,0.045,3.405,12.26,0.0
2.27,-0.0068,1.6838,9.398,0.00109,-0.00152,-0.00171,0.0,3.916,0.058,0.0,3.42,0.045,3.42,12.31,0.0
2.28,0.3295,1.3502,10.0516,0.00369,0.00838,0.00047,0.0,3.95,0.058,0.0,3.435,0.045,3.435,12.37,0.0
2.29,0.2571,1.5263,9.9358,-0.00453,-0.00398,0.00438,0.0,3.985,0.059,0.0,3.45,0.046,3.45,12.42,0.0
2.3,-0.1419,1.4319,9.9391,0.00501,-0.00473,0.00139,0.0,4.019,0.059,0.0,3.465,0.046,3.465,12.47,0.0
2.31,0.1933,1.6305,9.926,-0.00127,-0.00184,-0.00796,0.0,4.054,0.06,0.0,3.48,0.046,3.48,12.53,0.0
2.32,0.6508,1.2674,9.5763,0.00346,-0.00275,-0.00234,0.0,4.089,0.06,0.0,3.495,0.046,3.495,12.58,0.0
2.33,-0.1117,1.3159,9.7293,0.00777,0.00481,0.0024,0.0,4.124,0.061,0.0,3.51,0.046,3.51,12.64,0.0
2.34,0.149,1.4457,10.5905,0.00514,0.00103,-0.004,0.0,4.159,0.061,0.0,3.525,0.046,3.525,12.69,0.0
2.35,0.1788,1.4854,9.8464,0.00354,0.00681,-0.00062,0.0,4.195,0.062,0.0,3.54,0.046,3.54,12.74,0.0
2.36,-0.4152,1.2117,9.7929,-0.00022,0.00323,-0.0013,0.0,4.23,0.062,0.0,3.555,0.046,3.555,12.8,0.0
2.37,0.5436,1.571,9.9165,1e-05,0.00142,0.01313,0.0,4.266,0.063,0.0,3.57,0.046,3.57,12.85,0.0
2.38,-0.3384,1.699,10.2312,-0.00137,-0.00019,-0.006,0.0,4.302,0.063,0.0,3.585,0.046,3.585,12.91,0.0
2.39,-0.0735,1.4874,10.2529,-0.00447,-0.00087,0.00321,0.0,4.338,0.064,0.0,3.6,0.047,3.6,12.96,0.0
2.4,-0.3232,1.8029,9.3702,7e-05,0.00356,-0.0004,0.0,4.374,0.064,0.0,3.615,0.047,3.615,13.01,0.0
2.41,-0.2699,1.248,9.6674,0.00017,0.00316,-0.00134,0.0,4.41,0.064,0.0,3.63,0.047,3.63,13.07,0.0
2.42,0.1795,1.5821,9.9236,0.0055,-0.00569,0.00526,0.0,4.447,0.065,0.0,3.645,0.047,3.645,13.12,0.0
2.43,0.1092,1.2557,9.6982,-0.0063,-0.00425,0.00075,0.0,4.483,0.065,0.0,3.66,0.047,3.66,13.18,0.0
2.44,0.2523,1.7898,10.1932,0.00674,-0.00257,0.00875,0.0,4.52,0.066,0.0,3.675,0.047,3.675,13.23,0.0
2.45,-0.1441,1.4308,9.3831,-0.00026,-0.00888,0.00205,0.0,4.557,0.066,0.0,3.69,0.047,3.69,13.28,0.0
2.46,-0.1977,1.6855,9.7482,0.00327,0.01073,-0.00248,0.0,4.594,0.067,0.0,3.705,0.047,3.705,13.34,0.0
2.47,0.2042,1.4204,10.0169,0.00435,0.00912,0.00564,0.0,4.631,0.067,0.0,3.72,0.047,3.72,13.39,0.0
2.48,-0.1606,1.2286,10.3866,-0.00116,-0.00027,0.00261,0.0,4.669,0.068,0.0,3.735,0.047,3.735,13.45,0.0
2.49,-0.1837,1.0932,10.3804,-0.00605,-0.00519,0.00337,0.0,4.706,0.068,0.0,3.75,0.047,3.75,13.5,0.0
2.5,-0.0396,1.2538,9.9867,-0.00222,-0.00171,-0.00745,0.0,4.744,0.069,0.0,3.765,0.047,3.765,13.55,0.0
2.51,-0.0831,1.6635,9.4992,-0.00031,-0.00772,0.00309,0.0,4.782,0.069,0.0,3.78,0.048,3.78,13.61,0.0
2.52,-0.3628,1.6282,9.8264,0.00711,-0.00424,-0.00603,0.0,4.82,0.07,0.0,3.795,0.048,3.795,13.66,0.0
2.53,-0.244,1.1916,10.1658,0.00753,0.00872,0.00976,0.0,4.858,0.07,0.0,3.81,0.048,3.81,13.72,0.0
2.54,0.0015,1.4247,9.9526,0.00269,-0.004,0.00365,0.0,4.896,0.071,0.0,3.825,0.048,3.825,13.77,0.0
2.55,-0.0581,1.5185,9.7755,-0.00182,-0.00696,-0.00593,0.0,4.934,0.071,0.0,3.84,0.048,3.84,13.82,0.0
2.56,0.3895,1.4546,10.1911,0.00257,0.00869,0.00068,0.0,4.973,0.072,0.0,3.855,0.048,3.855,13.88,0.0
2.57,0.1007,1.496,9.6497,-0.00176,-0.00544,0.00621,0.0,5.012,0.072,0.0,3.87,0.048,3.87,13.93,0.0
2.58,0.1722,1.8021,10.2953,-0.00153,-0.00437,0.01146,0.0,5.051,0.073,0.0,3.885,0.048,3.885,13.99,0.0
2.59,0.1932,1.5316,9.8072,-0.00272,-0.00634,0.00268,0.0,5.09,0.073,0.0,3.9,0.048,3.9,14.04,0.0
2.6,0.2129,1.541,9.8618,-0.00337,0.00448,-0.00768,0.0,5.129,0.073,0.0,3.915,0.048,3.915,14.09,0.0
2.61,-0.0119,1.7813,9.3374,0.00562,0.01067,-0.00122,0.0,5.168,0.074,0.0,3.93,0.048,3.93,14.15,0.0
2.62,0.056,1.5767,10.1598,-0.00811,0.00183,-0.00178,0.0,5.207,0.074,0.0,3.945,0.048,3.945,14.2,0.0
2.63,-0.011,1.6481,9.7031,0.00099,0.00517,-0.00975,0.0,5.247,0.075,0.0,3.96,0.048,3.96,14.26,0.0
2.64,0.2654,1.2535,9.3742,0.00331,0.00157,-0.00307,0.0,5.287,0.075,0.0,3.975,0.048,3.975,14.31,0.0
2.65,-0.3401,1.5433,10.1038,0.00033,0.00406,0.00535,0.0,5.327,0.076,0.0,3.99,0.048,3.99,14.36,0.0
2.66,0.0704,1.6794,9.5185,-0.0067,-0.00253,0.00074,0.0,5.367,0.076,0.0,4.005,0.049,4.005,14.42,0.0
2.67,0.0983,1.3802,9.8038,-0.00536,-0.00378,-0.00879,0.0,5.407,0.077,0.0,4.02,0.049,4.02,14.47,0.0
2.68,0.0846,1.4839,9.758,-0.0016,0.00185,-0.00051,0.0,5.447,0.077,0.0,4.035,0.049,4.035,14.53,0.0
2.69,-0.2474,1.5689,10.0499,0.00534,-0.00404,0.00388,0.0,5.488,0.078,0.0,4.05,0.049,4.05,14.58,0.0
2.7,0.0873,1.5433,9.8819,0.00062,0.00378,0.00405,0.0,5.528,0.078,0.0,4.065,0.049,4.065,14.63,0.0
2.71,-0.5517,1.7196,10.1944,-0.00041,0.00272,-0.0025,0.0,5.569,0.079,0.0,4.08,0.049,4.08,14.69,0.0
2.72,0.0554,1.6225,10.216,0.00169,0.00195,0.00495,0.0,5.61,0.079,0.0,4.095,0.049,4.095,14.74,0.0
2.73,0.2405,1.4234,9.7156,0.00418,-0.00532,0.0056,0.0,5.651,0.08,0.0,4.11,0.049,4.11,14.8,0.0
2.74,0.3061,1.263,9.7761,0.00432,0.00328,0.00417,0.0,5.693,0.08,0.0,4.125,0.049,4.125,14.85,0.0
2.75,0.4809,1.3143,9.3414,-0.00355,0.00462,0.00963,0.0,5.734,0.081,0.0,4.14,0.049,4.14,14.9,0.0
2.76,0.0926,1.7611,9.8128,-0.00292,-0.01028,-0.01592,0.0,5.775,0.081,0.0,4.155,0.049,4.155,14.96,0.0
2.77,0.0479,1.5742,10.0956,-0.00626,0.0039,-0.00015,0.0,5.817,0.082,0.0,4.17,0.049,4.17,15.01,0.0
2.78,0.1504,1.3784,9.3665,0.00142,-0.01126,-0.00702,0.0,5.859,0.082,0.0,4.185,0.049,4.185,15.07,0.0
2.79,0.2155,1.6266,9.3757,-0.00404,0.0006,0.004,0.0,5.901,0.083,0.0,4.2,0.049,4.2,15.12,0.0
2.8,0.4295,1.5397,10.0477,0.00121,-0.00154,-0.0031,0.0,5.943,0.083,0.0,4.215,0.049,4.215,15.17,0.0
2.81,-0.0503,1.3456,10.2659,-0.00757,0.00904,0.00013,0.0,5.985,0.084,0.0,4.23,0.049,4.23,15.23,0.0
2.82,-0.1558,1.3912,10.0227,0.00231,0.0045,0.00225,0.0,6.028,0.084,0.0,4.245,0.049,4.245,15.28,0.0
2.83,0.3763,1.2844,10.3037,-0.0015,-0.00197,-0.00093,0.0,6.071,0.085,0.0,4.26,0.049,4.26,15.34,0.0
2.84,-0.1602,1.4537,10.138,-0.00547,-0.00724,-0.00354,0.0,6.113,0.085,0.0,4.275,0.049,4.275,15.39,0.0
2.85,0.3242,1.7523,9.3995,-0.01047,0.00261,0.00043,0.0,6.156,0.086,0.0,4.29,0.049,4.29,15.44,0.0
2.86,0.1284,1.4241,9.9253,0.00207,-0.00731,-0.00786,0.0,6.199,0.086,0.0,4.305,0.05,4.305,15.5,0.0
2.87,0.2563,1.2574,10.1711,-0.00134,0.00078,0.00965,0.0,6.242,0.087,0.0,4.32,0.05,4.32,15.55,0.0
2.88,0.1919,1.7225,10.3476,-0.00378,0.00148,0.00595,0.0,6.286,0.087,0.0,4.335,0.05,4.335,15.61,0.0
2.89,-0.3197,1.8292,10.2193,0.00638,-0.00751,0.00269,0.0,6.329,0.088,0.0,4.35,0.05,4.35,15.66,0.0
2.9,0.2492,1.2893,9.8597,0.01055,0.00695,0.00329,0.0,6.373,0.088,0.0,4.365,0.05,4.365,15.71,0.0
2.91,0.0405,1.3452,9.7765,0.00343,-0.00905,-0.00581,0.0,6.417,0.089,0.0,4.38,0.05,4.38,15.77,0.0
2.92,0.0096,1.4598,9.5781,0.00597,0.00163,0.0035,0.0,6.461,0.089,0.0,4.395,0.05,4.395,15.82,0.0
2.93,0.3112,1.3669,9.9153,-0.00687,-0.00713,0.00222,0.0,6.505,0.09,0.0,4.41,0.05,4.41,15.88,0.0
2.94,-0.0418,1.4135,9.3488,0.00028,-0.00195,-0.0055,0.0,6.549,0.09,0.0,4.425,0.05,4.425,15.93,0.0
2.95,-0.0138,1.3728,9.888,-0.0102,0.00628,-0.00019,0.0,6.593,0.091,0.0,4.44,0.05,4.44,15.98,0.0
2.96,-0.0417,1.5362,9.7441,0.00014,0.0038,-0.00331,0.0,6.638,0.091,0.0,4.455,0.05,4.455,16.04,0.0
2.97,0.0798,1.6541,9.3916,-0.00623,-0.01011,-0.00076,0.0,6.683,0.092,0.0,4.47,0.05,4.47,16.09,0.0
2.98,0.0095,1.4397,9.6661,0.0069,-0.0045,-0.00524,0.0,6.728,0.092,0.0,4.485,0.05,4.485,16.15,0.0
2.99,-0.2178,1.2712,9.8681,0.00439,-0.00457,-0.00406,0.0,6.773,0.093,0.0,4.5,0.05,4.5,16.2,0.0
3.0,0.3715,1.401,9.5819,-0.00517,-0.00327,-0.00685,0.0,6.818,0.093,0.0,4.515,0.05,4.515,16.25,0.0
3.01,0.3684,1.2278,9.9289,0.00664,0.00205,0.00326,0.0,6.863,0.094,0.0,4.53,0.05,4.53,16.31,0.0
3.02,0.0945,1.3119,9.645,0.00956,0.00053,-0.00129,0.0,6.908,0.094,0.0,4.545,0.05,4.545,16.36,0.0
3.03,0.0257,1.5703,9.1186,-0.00186,-0.00726,-0.00901,0.0,6.954,0.095,0.0,4.56,0.05,4.56,16.42,0.0
3.04,-0.0535,1.3096,10.1972,0.00026,0.00773,-0.00309,0.0,7.0,0.095,0.0,4.575,0.05,4.575,16.47,0.0
3.05,-0.3119,1.7495,9.6882,-0.00256,0.00502,-0.00662,0.0,7.046,0.096,0.0,4.59,0.05,4.59,16.52,0.0
3.06,-0.1446,1.3867,9.8901,-0.00654,0.00318,0.00253,0.0,7.092,0.096,0.0,4.605,0.05,4.605,16.58,0.0
3.07,0.2205,1.6907,9.8966,-0.0012,-0.00434,0.00194,0.0,7.138,0.097,0.0,4.62,0.05,4.62,16.63,0.0
3.08,-0.3909,1.6452,10.2511,-0.00036,-0.00326,0.00867,0.0,7.184,0.097,0.0,4.635,0.05,4.635,16.69,0.0
3.09,-0.0837,1.7648,9.8391,-0.00186,-0.00063,0.00677,0.0,7.231,0.098,0.0,4.65,0.05,4.65,16.74,0.0
3.1,0.024,1.7488,9.7207,0.00535,-0.00428,-0.00744,0.0,7.277,0.098,0.0,4.665,0.05,4.665,16.79,0.0
3.11,0.0647,1.192,10.1725,0.00376,-0.00301,-0.00885,0.0,7.324,0.099,0.0,4.68,0.05,4.68,16.85,0.0
3.12,0.0191,1.124,9.9188,0.00439,0.00586,0.00066,0.0,7.371,0.099,0.0,4.695,0.05,4.695,16.9,0.0
3.13,-0.0445,1.4442,9.6958,0.00472,-0.00329,-0.00516,0.0,7.418,0.1,0.0,4.71,0.05,4.71,16.96,0.0
3.14,0.2883,0.9902,9.4513,-0.00474,0.00274,-8e-05,0.0,7.466,0.1,0.0,4.725,0.05,4.725,17.01,0.0
3.15,0.0335,1.6601,9.9971,-0.00559,-0.00083,-0.00404,0.0,7.513,0.101,0.0,4.74,0.05,4.74,17.06,0.0
3.16,0.0476,1.7062,9.6905,0.00344,0.00498,0.00323,0.0,7.56,0.101,0.0,4.755,0.05,4.755,17.12,0.0
3.17,-0.0135,1.4805,9.5427,0.00674,-0.00301,0.00211,0.0,7.608,0.102,0.0,4.77,0.05,4.77,17.17,0.0
3.18,0.3298,1.62,10.1809,0.00229,-0.00235,-0.00037,0.0,7.656,0.102,0.0,4.785,0.05,4.785,17.23,0.0
3.19,-0.3402,1.2941,9.4803,0.00361,0.01022,9e-05,0.0,7.704,0.103,0.0,4.8,0.05,4.8,17.28,0.0
3.2,0.2962,1.3798,10.1405,-0.00802,-0.00405,0.00028,0.0,7.752,0.103,0.0,4.815,0.05,4.815,17.33,0.0
3.21,0.4498,1.6627,10.1421,0.00084,0.00453,-0.00537,0.0,7.8,0.104,0.0,4.83,0.05,4.83,17.39,0.0
3.22,0.1756,1.6412,10.043,0.0035,-0.00121,-0.00082,0.0,7.849,0.104,0.0,4.845,0.05,4.845,17.44,0.0
3.23,0.1311,1.734,9.2622,0.001,-0.0017,0.00355,0.0,7.898,0.105,0.0,4.86,0.05,4.86,17.5,0.0
3.24,0.0203,1.0753,10.1563,-0.0065,0.00298,0.00207,0.0,7.946,0.105,0.0,4.875,0.05,4.875,17.55,0.0
3.25,-0.0746,1.2786,8.9665,0.01068,-0.00406,-0.01338,0.0,7.995,0.106,0.0,4.89,0.05,4.89,17.6,0.0
3.26,-0.262,1.577,10.1586,-0.00417,-0.00301,-0.00027,0.0,8.044,0.106,0.0,4.905,0.05,4.905,17.66,0.0
3.27,-0.0517,1.1377,10.1301,0.00469,-0.00388,0.00313,0.0,8.093,0.107,0.0,4.92,0.05,4.92,17.71,0.0
3.28,0.1252,1.2919,9.6483,0.00395,0.00049,-0.00513,0.0,8.143,0.107,0.0,4.935,0.05,4.935,17.77,0.0
3.29,0.0825,1.359,9.7263,-0.00096,-0.00661,0.00163,0.0,8.192,0.108,0.0,4.95,0.05,4.95,17.82,0.0
3.3,-0.0696,1.3231,9.9692,0.00233,0.00078,0.00848,0.0,8.242,0.108,0.0,4.965,0.05,4.965,17.87,0.0
3.31,-0.2671,1.3595,9.608,0.00212,0.00655,0.00803,0.0,8.292,0.109,0.0,4.98,0.05,4.98,17.93,0.0
3.32,0.1387,1.304,9.9258,-0.00511,-0.00667,0.00064,0.0,8.342,0.109,0.0,4.995,0.05,4.995,17.98,0.0
3.33,-0.1018,1.7655,9.9376,-0.00435,0.00119,-0.00251,0.0,8.392,0.11,0.0,5.01,0.05,5.01,18.04,0.0
3.34,-0.3733,1.7183,9.4488,0.00228,-0.01102,-0.00207,0.0,8.442,0.11,0.0,5.025,0.05,5.025,18.09,0.0
3.35,-0.1269,1.6639,9.682,0.00624,0.00095,-0.00655,0.0,8.492,0.111,0.0,5.04,0.05,5.04,18.14,0.0
3.36,-0.3786,1.7434,9.9678,-0.00148,-0.00521,-0.00066,0.0,8.543,0.111,0.0,5.055,0.05,5.055,18.2,0.0
3.37,0.0756,1.6276,10.2188,0.00141,0.00225,0.00199,0.0,8.594,0.112,0.0,5.07,0.05,5.07,18.25,0.0
3.38,-0.4828,1.2935,9.7644,0.00157,-0.00047,-0.0007,0.0,8.644,0.112,0.0,5.085,0.05,5.085,18.31,0.0
3.39,-0.0075,1.4468,9.5409,-0.00211,-0.00075,0.0021,0.0,8.696,0.113,0.0,5.1,0.05,5.1,18.36,0.0
3.4,0.0144,1.736,9.7889,0.00414,0.0043,0.00194,0.0,8.747,0.113,0.0,5.115,0.05,5.115,18.41,0.0
3.41,-0.146,1.3618,10.0897,0.00072,-0.00426,-0.01167,0.0,8.798,0.114,0.0,5.13,0.05,5.13,18.47,0.0
3.42,-0.1738,1.605,9.5361,0.00238,0.00489,0.00421,0.0,8.849,0.114,0.0,5.145,0.05,5.145,18.52,0.0
3.43,0.3253,1.4408,9.8007,-0.00564,-0.00246,-0.00334,0.0,8.901,0.115,0.0,5.16,0.049,5.16,18.58,0.0
3.44,0.0631,1.3322,9.482,-0.00224,-0.00443,-0.00169,0.0,8.953,0.115,0.0,5.175,0.049,5.175,18.63,0.0
3.45,0.2156,1.8268,9.9488,0.00145,0.00226,0.00612,0.0,9.005,0.116,0.0,5.19,0.049,5.19,18.68,0.0
3.46,-0.1783,1.833,9.2311,-0.00788,0.00131,-0.00148,0.0,9.057,0.116,0.0,5.205,0.049,5.205,18.74,0.0
3.47,0.3757,1.4638,9.7915,-0.00084,0.00013,-0.00541,0.0,9.109,0.117,0.0,5.22,0.049,5.22,18.79,0.0
3.48,-0.3202,1.7442,10.2425,0.00606,0.00752,-0.0034,0.0,9.161,0.117,0.0,5.235,0.049,5.235,18.85,0.0
3.49,-0.0687,1.8566,9.2603,0.00483,-0.00393,-4e-05,0.0,9.214,0.118,0.0,5.25,0.049,5.25,18.9,0.0
3.5,-0.2824,1.2974,9.9661,0.0007,0.00162,0.00371,0.0,9.266,0.118,0.0,5.265,0.049,5.265,18.95,0.0
3.51,-0.0311,1.4207,9.6801,0.00457,-0.00772,0.00419,0.0,9.319,0.119,0.0,5.28,0.049,5.28,19.01,0.0
3.52,-0.133,1.2892,9.4784,0.00914,-0.00914,0.00085,0.0,9.372,0.119,0.0,5.295,0.049,5.295,19.06,0.0
3.53,-0.178,1.5259,9.9804,0.0057,0.00116,0.00107,0.0,9.425,0.12,0.0,5.31,0.049,5.31,19.12,0.0
3.54,0.0674,1.2709,9.6423,0.00481,0.00191,-3e-05,0.0,9.478,0.12,0.0,5.325,0.049,5.325,19.17,0.0
3.55,0.2479,1.6974,9.7836,-0.00054,-0.00114,0.0023,0.0,9.532,0.121,0.0,5.34,0.049,5.34,19.22,0.0
3.56,0.0232,1.3383,9.5667,0.00548,-0.00453,0.00443,0.0,9.585,0.121,0.0,5.355,0.049,5.355,19.28,0.0
3.57,-0.325,1.9706,9.8219,0.00386,-0.00637,-0.00356,0.0,9.639,0.122,0.0,5.37,0.049,5.37,19.33,0.0
3.58,-0.0431,1.6394,9.7033,0.00442,0.00314,0.00246,0.0,9.693,0.122,0.0,5.385,0.049,5.385,19.39,0.0
3.59,0.1781,1.9687,10.1806,0.00843,-0.00054,0.00781,0.0,9.747,0.122,0.0,5.4,0.049,5.4,19.44,0.0
3.6,-0.0372,1.5685,9.9186,-0.00455,0.00422,0.00702,0.0,9.801,0.123,0.0,5.415,0.049,5.415,19.49,0.0
3.61,-0.2506,1.4779,9.9126,-0.00544,0.00281,-0.0006,0.0,9.855,0.123,0.0,5.43,0.049,5.43,19.55,0.0
3.62,0.1774,1.3438,9.5493,-0.01037,0.00319,0.00115,0.0,9.91,0.124,0.0,5.445,0.049,5.445,19.6,0.0
3.63,0.3909,1.6086,9.8709,-0.00668,0.002,0.00055,0.0,9.964,0.124,0.0,5.46,0.049,5.46,19.66,0.0
3.64,-0.093,1.4049,9.8075,-0.00243,0.00026,0.0028,0.0,10.019,0.125,0.0,5.475,0.048,5.475,19.71,0.0
3.65,-0.324,1.0618,9.9019,0.00444,-0.00507,-0.00083,0.0,10.074,0.125,0.0,5.49,0.048,5.49,19.76,0.0
3.66,0.0821,1.2051,9.4459,-4e-05,-0.00207,0.00131,0.0,10.129,0.126,0.0,5.505,0.048,5.505,19.82,0.0
3.67,0.1525,1.2895,9.7879,0.01058,-0.00125,0.00071,0.0,10.184,0.126,0.0,5.52,0.048,5.52,19.87,0.0
3.68,0.1151,1.2587,10.0478,-0.00041,-0.00253,-0.00376,0.0,10.24,0.127,0.0,5.535,0.048,5.535,19.93,0.0
3.69,0.1139,1.625,10.1931,-0.00124,0.0001,-0.00128,0.0,10.295,0.127,0.0,5.55,0.048,5.55,19.98,0.0
3.7,-0.4119,1.6869,9.9691,0.0003,-0.00079,-0.00488,0.0,10.351,0.128,0.0,5.565,0.048,5.565,20.03,0.0
3.71,0.4137,1.3047,9.8448,-0.004,-0.00212,-0.00404,0.0,10.407,0.128,0.0,5.58,0.048,5.58,20.09,0.0
3.72,-0.3876,1.7596,9.7971,0.01086,0.00085,0.00878,0.0,10.463,0.129,0.0,5.595,0.048,5.595,20.14,0.0
3.73,0.0942,1.586,10.2801,-0.00703,0.00311,0.0068,0.0,10.519,0.129,0.0,5.61,0.048,5.61,20.2,0.0
3.74,0.4643,1.6718,9.7953,-0.00449,0.00799,0.00065,0.0,10.575,0.13,0.0,5.625,0.048,5.625,20.25,0.0
3.75,-0.0994,1.7011,9.0593,-0.00073,-7e-05,-0.00255,0.0,10.631,0.13,0.0,5.64,0.048,5.64,20.3,0.0
3.76,-0.0667,1.8989,9.8309,0.0028,-0.01025,-2e-05,0.0,10.688,0.131,0.0,5.655,0.048,5.655,20.36,0.0
3.77,0.3677,1.2477,9.8083,-0.00326,0.00353,0.00758,0.0,10.745,0.131,0.0,5.67,0.048,5.67,20.41,0.0
3.78,0.2704,1.6403,9.7743,0.00369,0.00953,-0.00046,0.0,10.801,0.132,0.0,5.685,0.047,5.685,20.47,0.0
3.79,0.1418,1.4724,9.4177,-0.00278,0.00541,-0.0012,0.0,10.858,0.132,0.0,5.7,0.047,5.7,20.52,0.0
3.8,-0.1308,1.7765,9.8744,0.00736,-0.0033,-0.00255,0.0,10.916,0.133,0.0,5.715,0.047,5.715,20.57,0.0
3.81,-0.2256,1.4232,10.4801,-0.00259,0.00449,0.00602,0.0,10.973,0.133,0.0,5.73,0.047,5.73,20.63,0.0
3.82,-0.156,1.84,10.0093,0.00748,-0.00022,0.00055,0.0,11.03,0.134,0.0,5.745,0.047,5.745,20.68,0.0
3.83,0.1993,1.6378,9.7543,0.01069,-0.00047,0.00223,0.0,11.088,0.134,0.0,5.76,0.047,5.76,20.74,0.0
3.84,-0.0721,1.3791,10.1052,0.00121,-0.00155,-0.00193,0.0,11.146,0.134,0.0,5.775,0.047,5.775,20.79,0.0
3.85,-0.0888,1.6486,9.7955,-0.00244,-0.00111,-0.0029,0.0,11.204,0.135,0.0,5.79,0.047,5.79,20.84,0.0
3.86,-0.0496,1.4749,10.7495,-0.00464,0.0077,-0.00343,0.0,11.262,0.135,0.0,5.805,0.047,5.805,20.9,0.0
3.87,0.1273,1.3315,10.0567,-0.00409,0.00142,-0.00647,0.0,11.32,0.136,0.0,5.82,0.047,5.82,20.95,0.0
3.88,-0.2536,1.6155,9.7339,0.00139,0.00428,0.01033,0.0,11.378,0.136,0.0,5.835,0.047,5.835,21.01,0.0
3.89,0.0866,1.4519,9.2422,0.00342,-0.01153,0.00285,0.0,11.437,0.137,0.0,5.85,0.047,5.85,21.06,0.0
3.9,0.2438,1.6918,9.4978,-0.00198,0.00164,0.00229,0.0,11.495,0.137,0.0,5.865,0.046,5.865,21.11,0.0
3.91,0.2605,1.4876,10.257,-0.0016,-7e-05,0.00378,0.0,11.554,0.138,0.0,5.88,0.046,5.88,21.17,0.0
3.92,-0.5223,1.4735,9.9763,-0.00134,-0.00472,0.00437,0.0,11.613,0.138,0.0,5.895,0.046,5.895,21.22,0.0
3.93,-0.0418,1.269,10.2628,-0.0101,0.00336,-0.00123,0.0,11.672,0.139,0.0,5.91,0.046,5.91,21.28,0.0
3.94,-0.053,1.4798,10.2972,0.00278,-0.01124,0.00359,0.0,11.731,0.139,0.0,5.925,0.046,5.925,21.33,0.0
3.95,-0.4034,1.3604,9.843,-0.00076,-0.00705,0.0049,0.0,11.791,0.14,0.0,5.94,0.046,5.94,21.38,0.0
3.96,-0.1914,1.73,9.069,0.00708,0.00879,0.00659,0.0,11.85,0.14,0.0,5.955,0.046,5.955,21.44,0.0
3.97,-0.3128,1.7433,10.2171,0.00836,-0.00493,0.00324,0.0,11.91,0.14,0.0,5.97,0.046,5.97,21.49,0.0
3.98,-0.1823,1.3871,9.8234,0.00307,-0.00147,0.00126,0.0,11.97,0.141,0.0,5.985,0.046,5.985,21.55,0.0
3.99,-0.2206,1.5978,9.616,0.0024,0.00304,-0.00344,0.0,12.03,0.141,0.0,6.0,0.046,6.0,21.6,0.0
4.0,-0.3856,1.4586,10.4719,0.00456,-0.00184,-0.00732,0.0,12.09,0.142,0.0,6.015,0.045,6.015,21.65,0.0
4.01,0.2738,1.137,9.7561,-0.00319,-0.00632,-0.00039,0.0,12.15,0.142,0.0,6.03,0.045,6.03,21.71,0.0
4.02,-0.1654,1.9969,9.4417,0.00047,-0.00648,-0.0074,0.0,12.211,0.143,0.0,6.045,0.045,6.045,21.76,0.0
4.03,0.3181,1.614,10.169,0.00949,-0.00926,0.00144,0.0,12.271,0.143,0.0,6.06,0.045,6.06,21.82,0.0
4.04,0.3207,1.7339,10.2099,-0.00215,0.01052,0.00105,0.0,12.332,0.144,0.0,6.075,0.045,6.075,21.87,0.0
4.05,0.4558,1.3494,9.4443,0.00073,-0.00569,-0.00417,0.0,12.393,0.144,0.0,6.09,0.045,6.09,21.92,0.0
4.06,-0.0743,1.5134,10.9213,-0.00851,0.00126,0.00177,0.0,12.454,0.145,0.0,6.105,0.045,6.105,21.98,0.0
4.07,-0.0394,1.2184,9.7815,-0.00221,0.00504,0.00631,0.0,12.515,0.145,0.0,6.12,0.045,6.12,22.03,0.0
4.08,-0.3502,1.5333,10.1597,0.0004,0.00472,-0.00639,0.0,12.577,0.145,0.0,6.135,0.045,6.135,22.09,0.0
4.09,0.2198,1.5851,9.8559,-0.00165,-0.01098,0.01167,0.0,12.638,0.146,0.0,6.15,0.044,6.15,22.14,0.0
4.1,-0.2517,1.654,9.8182,0.00352,-0.00036,0.0091,0.0,12.7,0.146,0.0,6.165,0.044,6.165,22.19,0.0
4.11,0.1267,1.5734,9.4542,-0.00045,0.00121,-0.00363,0.0,12.762,0.147,0.0,6.18,0.044,6.18,22.25,0.0
4.12,0.1448,1.9007,9.3827,-0.00122,-0.00355,0.00837,0.0,12.824,0.147,0.0,6.195,0.044,6.195,22.3,0.0
4.13,-0.0103,1.6052,9.8486,0.00296,-0.00693,-0.00062,0.0,12.886,0.148,0.0,6.21,0.044,6.21,22.36,0.0
4.14,-0.1068,1.1993,9.4509,-0.00251,-0.0023,-0.00159,0.0,12.948,0.148,0.0,6.225,0.044,6.225,22.41,0.0
4.15,-0.0075,1.527,10.125,0.00143,-0.00246,0.00533,0.0,13.01,0.149,0.0,6.24,0.044,6.24,22.46,0.0
4.16,-0.1325,1.5071,10.1164,0.00431,-0.00669,0.00432,0.0,13.073,0.149,0.0,6.255,0.044,6.255,22.52,0.0
4.17,-0.362,1.6441,10.3554,0.00322,0.00038,0.00575,0.0,13.136,0.149,0.0,6.27,0.044,6.27,22.57,0.0
4.18,-0.5502,1.4813,10.3952,0.01333,-0.00494,-0.00508,0.0,13.198,0.15,0.0,6.285,0.043,6.285,22.63,0.0
4.19,0.0688,1.7286,10.1767,-0.00026,0.00076,0.00443,0.0,13.261,0.15,0.0,6.3,0.043,6.3,22.68,0.0
4.2,-0.0277,1.7937,9.4268,-0.01053,0.0053,0.0031,0.0,13.325,0.151,0.0,6.315,0.043,6.315,22.73,0.0
4.21,-0.1238,1.6731,9.8192,0.00213,0.00698,0.00811,0.0,13.388,0.151,0.0,6.33,0.043,6.33,22.79,0.0
4.22,-0.2066,1.1332,9.6093,0.00484,-0.00315,0.00077,0.0,13.451,0.152,0.0,6.345,0.043,6.345,22.84,0.0
4.23,-0.0259,1.81,9.2402,-0.00248,0.0032,0.00192,0.0,13.515,0.152,0.0,6.36,0.043,6.36,22.9,0.0
4.24,0.1666,1.2379,9.7919,0.0018,0.00089,0.00634,0.0,13.579,0.152,0.0,6.375,0.043,6.375,22.95,0.0
4.25,-0.0506,1.4976,9.109,-0.01307,-0.00203,0.00489,0.0,13.643,0.153,0.0,6.39,0.043,6.39,23.0,0.0
4.26,0.1198,1.5026,10.3231,0.00127,-0.00426,-0.00139,0.0,13.707,0.153,0.0,6.405,0.042,6.405,23.06,0.0
4.27,0.1768,1.7451,9.6048,0.00926,0.0042,-0.00155,0.0,13.771,0.154,0.0,6.42,0.042,6.42,23.11,0.0
4.28,-0.491,1.2878,10.1596,-0.00366,-0.00704,-0.00122,0.0,13.835,0.154,0.0,6.435,0.042,6.435,23.17,0.0
4.29,0.1442,1.672,9.6883,0.00102,-0.00037,0.00425,0.0,13.9,0.155,0.0,6.45,0.042,6.45,23.22,0.0
4.3,-0.1658,1.3466,9.7527,-0.00223,-0.00407,-0.0049,0.0,13.964,0.155,0.0,6.465,0.042,6.465,23.27,0.0
4.31,0.6424,0.9919,9.7454,0.00302,0.00144,-0.00815,0.0,14.029,0.155,0.0,6.48,0.042,6.48,23.33,0.0
4.32,-0.0145,1.4705,10.3167,-0.00571,-0.00086,-0.00075,0.0,14.094,0.156,0.0,6.495,0.042,6.495,23.38,0.0
4.33,0.0813,1.9271,9.4499,-0.00456,-0.0072,0.00077,0.0,14.159,0.156,0.0,6.51,0.041,6.51,23.44,0.0
4.34,-0.0625,1.3278,9.9742,0.00378,0.00381,0.00322,0.0,14.224,0.157,0.0,6.525,0.041,6.525,23.49,0.0
4.35,-0.1005,1.6253,10.2159,0.00324,0.00458,0.00457,0.0,14.29,0.157,0.0,6.54,0.041,6.54,23.54,0.0
4.36,0.0475,1.5338,9.4926,-0.00042,0.00134,-0.00679,0.0,14.355,0.157,0.0,6.555,0.041,6.555,23.6,0.0
4.37,-0.2029,1.042,10.1566,-0.00555,0.00156,0.00104,0.0,14.421,0.158,0.0,6.57,0.041,6.57,23.65,0.0
4.38,-0.5309,1.7458,9.2928,-0.00101,-0.0074,-0.00222,0.0,14.487,0.158,0.0,6.585,0.041,6.585,23.71,0.0
4.39,-0.0353,1.6547,9.375,0.00099,-0.00611,-0.00383,0.0,14.553,0.159,0.0,6.6,0.041,6.6,23.76,0.0
4.4,-0.4731,1.3722,9.7994,0.00085,-0.00436,0.00037,0.0,14.619,0.159,0.0,6.615,0.04,6.615,23.81,0.0
4.41,0.1295,1.2973,9.2145,0.00303,-0.00988,0.00501,0.0,14.685,0.159,0.0,6.63,0.04,6.63,23.87,0.0
4.42,0.2204,1.5746,9.387,0.00326,-0.00051,-0.00594,0.0,14.752,0.16,0.0,6.645,0.04,6.645,23.92,0.0
4.43,0.1809,1.1639,9.4255,-0.00392,0.00204,0.00597,0.0,14.818,0.16,0.0,6.66,0.04,6.66,23.98,0.0
4.44,-0.0975,1.2826,9.5425,-0.00527,-0.00619,0.00205,0.0,14.885,0.161,0.0,6.675,0.04,6.675,24.03,0.0
4.45,-0.7818,1.3708,10.0409,-0.00859,-0.00514,-0.00653,0.0,14.952,0.161,0.0,6.69,0.04,6.69,24.08,0.0
4.46,-0.106,1.549,9.885,-2e-05,0.00256,-0.00056,0.0,15.019,0.161,0.0,6.705,0.04,6.705,24.14,0.0
4.47,-0.3691,1.4691,9.0158,-0.0038,0.00353,-0.002,0.0,15.086,0.162,0.0,6.72,0.039,6.72,24.19,0.0
4.48,-0.0985,1.5625,9.3427,0.00647,0.00804,-7e-05,0.0,15.154,0.162,0.0,6.735,0.039,6.735,24.25,0.0
4.49,0.0026,1.5701,9.2881,0.00567,0.00242,-0.00333,0.0,15.221,0.163,0.0,6.75,0.039,6.75,24.3,0.0
4.5,0.2825,1.4918,10.5282,0.00219,-0.0013,-0.00115,0.0,15.289,0.163,0.0,6.765,0.039,6.765,24.35,0.0
4.51,0.0351,1.6504,9.6064,0.00451,-0.00498,-0.00855,0.0,15.357,0.163,0.0,6.78,0.039,6.78,24.41,0.0
4.52,-0.0498,1.416,9.951,0.00837,0.00475,-0.0126,0.0,15.425,0.164,0.0,6.795,0.039,6.795,24.46,0.0
4.53,-0.0646,1.5398,9.5692,-0.00056,0.00044,-0.00958,0.0,15.493,0.164,0.0,6.81,0.038,6.81,24.52,0.0
4.54,0.0234,1.2104,9.6818,-0.00372,0.00571,0.00172,0.0,15.561,0.165,0.0,6.825,0.038,6.825,24.57,0.0
4.55,-0.2466,1.2843,10.1799,0.00088,0.00717,0.0072,0.0,15.629,0.165,0.0,6.84,0.038,6.84,24.62,0.0
4.56,-0.1152,1.1907,9.7845,0.00333,-0.01144,-0.01151,0.0,15.698,0.165,0.0,6.855,0.038,6.855,24.68,0.0
4.57,-0.1252,1.4608,9.2489,0.00396,0.00812,0.00433,0.0,15.767,0.166,0.0,6.87,0.038,6.87,24.73,0.0
4.58,0.0321,1.435,10.4608,0.00764,-0.00261,0.00276,0.0,15.835,0.166,0.0,6.885,0.038,6.885,24.79,0.0
4.59,0.0211,1.3739,9.2162,-0.0047,0.00933,0.00639,0.0,15.904,0.166,0.0,6.9,0.037,6.9,24.84,0.0
4.6,0.3685,1.7342,9.6616,0.00688,0.006,-0.00245,0.0,15.974,0.167,0.0,6.915,0.037,6.915,24.89,0.0
4.61,0.3208,1.4475,9.1051,-0.00495,-1e-05,0.0039,0.0,16.043,0.167,0.0,6.93,0.037,6.93,24.95,0.0
4.62,0.1196,1.4025,9.5224,-0.00456,-0.00093,0.00241,0.0,16.112,0.168,0.0,6.945,0.037,6.945,25.0,0.0
4.63,0.1828,1.4362,9.469,0.01076,0.00407,-0.00481,0.0,16.182,0.168,0.0,6.96,0.037,6.96,25.06,0.0
4.64,-0.4846,1.6566,10.093,-0.0029,0.00524,-0.00805,0.0,16.252,0.168,0.0,6.975,0.037,6.975,25.11,0.0
4.65,-0.0845,1.4949,10.0203,-0.00139,0.00999,0.00274,0.0,16.322,0.169,0.0,6.99,0.036,6.99,25.16,0.0
4.66,-0.2391,1.516,10.5093,-0.00247,-0.00158,-0.00128,0.0,16.392,0.169,0.0,7.005,0.036,7.005,25.22,0.0
4.67,-0.3719,1.2485,10.3611,0.0024,0.00622,-0.01479,0.0,16.462,0.169,0.0,7.02,0.036,7.02,25.27,0.0
4.68,0.0595,1.6674,9.7665,0.00799,-0.00715,-0.00655,0.0,16.532,0.17,0.0,7.035,0.036,7.035,25.33,0.0
4.69,-0.0118,1.5702,9.7217,-0.00066,0.00088,-0.00888,0.0,16.603,0.17,0.0,7.05,0.036,7.05,25.38,0.0
4.7,-0.1569,1.633,9.512,-0.00312,0.00048,0.00096,0.0,16.673,0.17,0.0,7.065,0.036,7.065,25.43,0.0
4.71,-0.0839,1.6715,10.2642,-0.00468,0.00378,0.00351,0.0,16.744,0.171,0.0,7.08,0.035,7.08,25.49,0.0
4.72,-0.2001,1.378,10.2362,0.00348,-0.00189,-0.00248,0.0,16.815,0.171,0.0,7.095,0.035,7.095,25.54,0.0
4.73,-0.5981,1.598,9.4604,-0.00682,0.00228,0.00624,0.0,16.886,0.172,0.0,7.11,0.035,7.11,25.6,0.0
4.74,-0.3045,1.5174,10.2772,0.00695,0.00902,0.00549,0.0,16.957,0.172,0.0,7.125,0.035,7.125,25.65,0.0
4.75,-0.0607,1.4214,9.3482,0.00897,-0.00118,0.00151,0.0,17.029,0.172,0.0,7.14,0.035,7.14,25.7,0.0
4.76,0.0398,1.7271,10.0024,0.00613,0.00056,-0.0013,0.0,17.1,0.173,0.0,7.155,0.034,7.155,25.76,0.0
4.77,0.0411,1.3061,9.7361,0.00063,0.01064,-0.00849,0.0,17.172,0.173,0.0,7.17,0.034,7.17,25.81,0.0
4.78,-0.0258,1.6073,9.7118,0.00059,-0.00889,-0.00676,0.0,17.244,0.173,0.0,7.185,0.034,7.185,25.87,0.0
4.79,-0.3604,1.5573,9.7232,-0.00391,-0.00255,0.00065,0.0,17.316,0.174,0.0,7.2,0.034,7.2,25.92,0.0
4.8,-0.1815,1.2944,9.8395,0.00078,0.00071,-0.00653,0.0,17.388,0.174,0.0,7.215,0.034,7.215,25.97,0.0
4.81,-0.3283,1.5156,10.1809,-0.00886,0.0052,0.01184,0.0,17.46,0.174,0.0,7.23,0.034,7.23,26.03,0.0
4.82,-0.5671,1.6293,10.1493,0.00402,-0.00561,0.00473,0.0,17.533,0.175,0.0,7.245,0.033,7.245,26.08,0.0
4.83,-0.3737,1.5686,10.0758,-0.00082,-0.00828,-0.00268,0.0,17.605,0.175,0.0,7.26,0.033,7.26,26.14,0.0
4.84,0.4324,1.3801,10.7759,-0.00011,-0.01135,-0.00605,0.0,17.678,0.175,0.0,7.275,0.033,7.275,26.19,0.0
4.85,-0.4244,1.4757,9.6598,0.00893,0.00514,0.00605,0.0,17.751,0.176,0.0,7.29,0.033,7.29,26.24,0.0
4.86,0.0508,1.4859,9.573,0.00271,-0.00763,0.0056,0.0,17.824,0.176,0.0,7.305,0.033,7.305,26.3,0.0
4.87,-0.2267,1.3178,9.9125,0.00035,-0.01209,-0.00766,0.0,17.897,0.176,0.0,7.32,0.032,7.32,26.35,0.0
4.88,-0.319,1.6205,9.6856,0.00236,0.00383,0.00182,0.0,17.971,0.177,0.0,7.335,0.032,7.335,26.41,0.0
4.89,-0.3924,1.7206,9.7584,0.00704,0.00556,-0.00536,0.0,18.044,0.177,0.0,7.35,0.032,7.35,26.46,0.0
4.9,-0.126,1.4159,9.2772,-0.00529,0.00312,-0.00774,0.0,18.118,0.177,0.0,7.365,0.032,7.365,26.51,0.0
4.91,-0.2721,1.8481,9.5014,0.00954,0.00522,0.00283,0.0,18.192,0.177,0.0,7.38,0.032,7.38,26.57,0.0
4.92,0.2896,1.7295,9.8059,9e-05,-0.00087,0.00575,0.0,18.266,0.178,0.0,7.395,0.031,7.395,26.62,0.0
4.93,0.0409,1.3015,9.3149,-0.00604,-0.0017,0.00087,0.0,18.34,0.178,0.0,7.41,0.031,7.41,26.68,0.0
4.94,-0.2411,1.7884,10.1459,-0.00189,-0.00048,0.00626,0.0,18.414,0.178,0.0,7.425,0.031,7.425,26.73,0.0
4.95,-0.0581,1.5389,10.0001,-0.00156,0.00539,-0.00068,0.0,18.488,0.179,0.0,7.44,0.031,7.44,26.78,0.0
4.96,-0.3549,1.4339,9.1618,-0.0,-0.00046,0.00377,0.0,18.563,0.179,0.0,7.455,0.031,7.455,26.84,0.0
4.97,0.0444,1.6508,10.1198,-0.00154,-0.00774,-0.00095,0.0,18.638,0.179,0.0,7.47,0.031,7.47,26.89,0.0
4.98,0.0175,1.2622,9.8609,-0.00463,0.0005,-0.00166,0.0,18.712,0.18,0.0,7.485,0.03,7.485,26.95,0.0
4.99,-0.24,1.7077,10.1008,-0.00746,0.00026,0.00072,0.0,18.787,0.18,0.0,7.5,0.03,7.5,27.0,0.0
5.0,-0.2949,1.5586,10.1641,-0.0042,-0.0009,0.00593,0.0,18.863,0.18,0.0,7.515,0.03,7.515,27.05,0.0
5.01,-0.4111,1.2498,10.0184,0.00732,-0.00717,-0.00297,0.0,18.938,0.181,0.0,7.53,0.03,7.53,27.11,0.0
5.02,-0.6591,1.4733,9.932,-0.00901,-0.00432,0.00303,0.0,19.013,0.181,0.0,7.545,0.03,7.545,27.16,0.0
5.03,-0.0641,1.3368,9.7327,0.00172,0.00197,-0.00131,0.0,19.089,0.181,0.0,7.56,0.029,7.56,27.22,0.0
5.04,0.5207,1.7585,9.1815,-0.00822,-0.00068,0.00646,0.0,19.165,0.181,0.0,7.575,0.029,7.575,27.27,0.0
5.05,-0.1815,1.4136,10.1134,0.00383,0.01019,-0.00041,0.0,19.241,0.182,0.0,7.59,0.029,7.59,27.32,0.0
5.06,-0.1274,1.398,9.5727,-0.00197,-0.00783,-0.00106,0.0,19.317,0.182,0.0,7.605,0.029,7.605,27.38,0.0
5.07,-0.2733,1.3371,10.3922,-0.00074,-0.00823,0.01136,0.0,19.393,0.182,0.0,7.62,0.028,7.62,27.43,0.0
5.08,-0.2619,1.5337,9.5249,-0.00346,-0.0003,0.00186,0.0,19.469,0.183,0.0,7.635,0.028,7.635,27.49,0.0
5.09,0.2421,1.8407,10.2709,-0.00244,-0.00046,-0.00595,0.0,19.546,0.183,0.0,7.65,0.028,7.65,27.54,0.0
5.1,0.0196,1.5453,9.9529,-0.00868,-0.00665,0.00858,0.0,19.622,0.183,0.0,7.665,0.028,7.665,27.59,0.0
5.11,-0.2179,1.1903,9.4515,-0.00226,0.00131,-0.00967,0.0,19.699,0.183,0.0,7.68,0.028,7.68,27.65,0.0
5.12,0.4926,0.9914,9.8202,-0.00147,0.00176,0.00546,0.0,19.776,0.184,0.0,7.695,0.027,7.695,27.7,0.0
5.13,0.092,1.8397,9.8626,-0.00617,0.00147,0.01043,0.0,19.853,0.184,0.0,7.71,0.027,7.71,27.76,0.0
5.14,0.4074,1.3642,9.0098,0.00658,-0.0094,0.00357,0.0,19.93,0.184,0.0,7.725,0.027,7.725,27.81,0.0
5.15,0.0016,1.8056,9.9038,0.00255,-0.00402,0.00531,0.0,20.008,0.185,0.0,7.74,0.027,7.74,27.86,0.0
5.16,0.5447,1.609,9.7129,0.0026,0.00403,0.00442,0.0,20.085,0.185,0.0,7.755,0.027,7.755,27.92,0.0
5.17,-0.0512,1.7039,10.2936,-0.00719,0.00078,0.00563,0.0,20.163,0.185,0.0,7.77,0.026,7.77,27.97,0.0
5.18,0.0705,1.3038,9.5889,-0.0001,0.00338,-0.00609,0.0,20.241,0.185,0.0,7.785,0.026,7.785,28.03,0.0
5.19,0.277,1.2444,9.2693,0.00396,-0.00522,-0.00159,0.0,20.319,0.186,0.0,7.8,0.026,7.8,28.08,0.0
5.2,-0.0236,1.3595,9.9737,-0.00499,0.00687,-0.00435,0.0,20.397,0.186,0.0,7.815,0.026,7.815,28.13,0.0
5.21,0.1024,1.6806,9.9669,-0.00456,0.00327,-0.00097,0.0,20.475,0.186,0.0,7.83,0.026,7.83,28.19,0.0
5.22,0.4763,0.7247,10.3906,0.00595,-0.00743,0.00352,0.0,20.554,0.186,0.0,7.845,0.025,7.845,28.24,0.0
5.23,-0.0277,1.9607,10.3807,-1e-05,-0.00741,0.00892,0.0,20.632,0.187,0.0,7.86,0.025,7.86,28.3,0.0
5.24,0.1607,1.5584,10.1485,0.00166,-0.01015,-0.00493,0.0,20.711,0.187,0.0,7.875,0.025,7.875,28.35,0.0
5.25,0.3789,1.7117,9.2439,0.00317,-0.00526,3e-05,0.0,20.79,0.187,0.0,7.89,0.025,7.89,28.4,0.0
5.26,-0.2311,1.3845,10.3702,0.00346,-0.00171,-0.00047,0.0,20.869,0.187,0.0,7.905,0.024,7.905,28.46,0.0
5.27,0.236,1.136,9.9947,0.00508,-0.0014,-0.00928,0.0,20.948,0.188,0.0,7.92,0.024,7.92,28.51,0.0
5.28,0.0771,1.2428,10.1522,-0.00041,0.00173,0.0032,0.0,21.028,0.188,0.0,7.935,0.024,7.935,28.57,0.0
5.29,-0.1527,1.4667,10.3958,-0.00323,0.00805,-0.01143,0.0,21.107,0.188,0.0,7.95,0.024,7.95,28.62,0.0
5.3,-0.1635,1.0656,8.999,0.00777,-0.00092,-0.00295,0.0,21.187,0.188,0.0,7.965,0.024,7.965,28.67,0.0
5.31,0.2665,1.8055,9.7744,0.00093,-0.0067,-0.00329,0.0,21.267,0.189,0.0,7.98,0.023,7.98,28.73,0.0
5.32,-0.2809,1.5463,9.7536,-0.00173,0.00305,0.00034,0.0,21.347,0.189,0.0,7.995,0.023,7.995,28.78,0.0
5.33,0.0466,1.136,9.2321,-0.00161,0.00163,-0.00228,0.0,21.427,0.189,0.0,8.01,0.023,8.01,28.84,0.0
5.34,0.3432,1.3365,9.8875,0.00677,-0.00039,-0.00855,0.0,21.507,0.189,0.0,8.025,0.023,8.025,28.89,0.0
5.35,-0.1867,1.2313,9.8595,0.0045,-0.00336,0.00517,0.0,21.587,0.189,0.0,8.04,0.022,8.04,28.94,0.0
5.36,-0.0824,1.2921,10.5646,0.00671,0.00944,-0.00344,0.0,21.668,0.19,0.0,8.055,0.022,8.055,29.0,0.0
5.37,-0.124,1.5248,9.5991,0.00069,-0.00235,0.00531,0.0,21.749,0.19,0.0,8.07,0.022,8.07,29.05,0.0
5.38,-0.2712,1.6341,8.9291,0.0004,0.00754,0.00251,0.0,21.829,0.19,0.0,8.085,0.022,8.085,29.11,0.0
5.39,0.1203,1.9135,10.0273,0.00396,0.00858,-0.00131,0.0,21.91,0.19,0.0,8.1,0.022,8.1,29.16,0.0
5.4,-0.3733,1.2846,9.752,-0.00184,-0.00103,0.0044,0.0,21.992,0.191,0.0,8.115,0.021,8.115,29.21,0.0
5.41,-0.1937,1.4582,9.4943,0.00396,-0.00375,-0.00694,0.0,22.073,0.191,0.0,8.13,0.021,8.13,29.27,0.0
5.42,-0.0087,1.1923,9.9833,-0.00551,-0.00587,-0.00105,0.0,22.154,0.191,0.0,8.145,0.021,8.145,29.32,0.0
5.43,-0.0203,1.6666,10.1095,0.00176,0.00388,0.00202,0.0,22.236,0.191,0.0,8.16,0.021,8.16,29.38,0.0
5.44,0.0663,1.4228,9.5166,-0.00969,0.00484,0.00241,0.0,22.318,0.191,0.0,8.175,0.02,8.175,29.43,0.0
5.45,-0.2376,1.0676,9.8476,-0.00265,-0.0013,0.00226,0.0,22.4,0.192,0.0,8.19,0.02,8.19,29.48,0.0
5.46,0.1188,1.3303,10.1549,0.0175,0.00202,0.00409,0.0,22.482,0.192,0.0,8.205,0.02,8.205,29.54,0.0
5.47,-0.1916,1.7103,9.4133,-0.00166,0.00325,-0.01242,0.0,22.564,0.192,0.0,8.22,0.02,8.22,29.59,0.0
5.48,0.4099,1.6472,9.9426,0.00332,0.00194,-0.01034,0.0,22.646,0.192,0.0,8.235,0.02,8.235,29.65,0.0
5.49,0.2985,1.6614,9.7249,-0.00333,0.0031,-0.01054,0.0,22.729,0.192,0.0,8.25,0.019,8.25,29.7,0.0
5.5,-0.1424,1.5691,9.6236,0.00049,-0.00114,-0.00598,0.0,22.811,0.193,0.0,8.265,0.019,8.265,29.75,0.0
5.51,-0.3513,1.6421,8.9521,-0.00823,0.00599,-0.00623,0.0,22.894,0.193,0.0,8.28,0.019,8.28,29.81,0.0
5.52,-0.1522,1.5555,9.9833,0.00114,0.00795,0.00134,0.0,22.977,0.193,0.0,8.295,0.019,8.295,29.86,0.0
5.53,0.0046,1.5405,9.7777,-0.00554,0.00313,0.0012,0.0,23.06,0.193,0.0,8.31,0.018,8.31,29.92,0.0
5.54,0.3992,1.569,9.9462,0.01116,-0.00439,-0.00101,0.0,23.143,0.193,0.0,8.325,0.018,8.325,29.97,0.0
5.55,0.3476,1.5631,9.3749,0.00129,0.00173,0.01007,0.0,23.227,0.193,0.0,8.34,0.018,8.34,30.02,0.0
5.56,-0.149,1.1193,9.7614,0.0009,-0.00764,0.00201,0.0,23.31,0.194,0.0,8.355,0.018,8.355,30.08,0.0
5.57,-0.0914,1.4177,9.7215,-0.0022,-0.0062,0.0079,0.0,23.394,0.194,0.0,8.37,0.017,8.37,30.13,0.0
5.58,-0.1763,1.4874,9.8694,0.00264,-0.00877,0.00443,0.0,23.478,0.194,0.0,8.385,0.017,8.385,30.19,0.0
5.59,0.1532,1.2696,10.2147,-0.00589,0.00922,0.00336,0.0,23.562,0.194,0.0,8.4,0.017,8.4,30.24,0.0
5.6,-0.0777,1.324,9.8532,-0.00614,0.00092,0.00375,0.0,23.646,0.194,0.0,8.415,0.017,8.415,30.29,0.0
5.61,-0.1473,1.2758,9.529,0.00053,0.00592,0.00205,0.0,23.73,0.194,0.0,8.43,0.017,8.43,30.35,0.0
5.62,0.4371,1.2833,9.6671,-0.01018,0.01215,0.00121,0.0,23.815,0.195,0.0,8.445,0.016,8.445,30.4,0.0
5.63,0.2135,1.6794,9.245,0.00694,0.00406,0.00205,0.0,23.899,0.195,0.0,8.46,0.016,8.46,30.46,0.0
5.64,-0.035,1.1221,9.1771,0.00077,0.00244,-0.00131,0.0,23.984,0.195,0.0,8.475,0.016,8.475,30.51,0.0
5.65,-0.1891,1.5897,9.2907,0.00514,0.0004,0.00103,0.0,24.069,0.195,0.0,8.49,0.016,8.49,30.56,0.0
5.66,0.4501,1.6688,10.4932,0.0063,0.00068,-0.00036,0.0,24.154,0.195,0.0,8.505,0.015,8.505,30.62,0.0
5.67,0.1264,1.2305,9.9378,0.002,0.00118,0.00583,0.0,24.239,0.195,0.0,8.52,0.015,8.52,30.67,0.0
5.68,-0.006,1.655,9.5349,0.00587,0.00561,-0.00154,0.0,24.325,0.196,0.0,8.535,0.015,8.535,30.73,0.0
5.69,-0.409,1.4547,9.6095,0.00056,0.00782,0.00252,0.0,24.41,0.196,0.0,8.55,0.015,8.55,30.78,0.0
5.7,-0.041,1.282,10.0529,0.00646,0.0047,0.00024,0.0,24.496,0.196,0.0,8.565,0.014,8.565,30.83,0.0
5.71,-0.1494,1.4293,10.1716,-0.00092,-0.00212,0.00175,0.0,24.582,0.196,0.0,8.58,0.014,8.58,30.89,0.0
5.72,-0.0432,1.2579,9.7909,0.006,0.00121,0.0021,0.0,24.668,0.196,0.0,8.595,0.014,8.595,30.94,0.0
5.73,-0.1492,1.8818,9.4591,0.01105,-0.00032,-0.00438,0.0,24.754,0.196,0.0,8.61,0.014,8.61,31.0,0.0
5.74,0.3683,1.5338,9.6497,-0.0018,0.00438,0.00242,0.0,24.84,0.196,0.0,8.625,0.013,8.625,31.05,0.0
5.75,-0.2554,1.7548,9.86,-2e-05,-0.00091,-0.00387,0.0,24.926,0.197,0.0,8.64,0.013,8.64,31.1,0.0
5.76,0.3191,1.5272,9.6022,-0.0061,-0.00476,-0.00063,0.0,25.013,0.197,0.0,8.655,0.013,8.655,31.16,0.0
5.77,-0.2474,1.8128,9.7946,0.00639,-0.00282,0.00133,0.0,25.1,0.197,0.0,8.67,0.013,8.67,31.21,0.0
5.78,-0.5097,1.7479,10.0513,-0.00267,0.00421,0.0006,0.0,25.186,0.197,0.0,8.685,0.012,8.685,31.27,0.0
5.79,-0.1296,1.7594,9.6412,0.0064,0.00357,-0.00276,0.0,25.273,0.197,0.0,8.7,0.012,8.7,31.32,0.0
5.8,-0.2606,0.9938,10.0029,0.00339,0.00279,0.00165,0.0,25.361,0.197,0.0,8.715,0.012,8.715,31.37,0.0
5.81,0.0397,1.342,9.522,0.00444,0.00273,0.00211,0.0,25.448,0.197,0.0,8.73,0.012,8.73,31.43,0.0
5.82,-0.0491,1.2945,9.6533,-0.00622,0.00384,0.00573,0.0,25.535,0.197,0.0,8.745,0.011,8.745,31.48,0.0
5.83,0.4496,1.4259,9.6361,-0.00191,0.00212,0.00685,0.0,25.623,0.197,0.0,8.76,0.011,8.76,31.54,0.0
5.84,0.099,1.4976,9.3711,-0.01005,-0.00699,0.00539,0.0,25.711,0.198,0.0,8.775,0.011,8.775,31.59,0.0
5.85,0.0199,1.4388,9.8679,-0.00324,0.00124,0.01021,0.0,25.799,0.198,0.0,8.79,0.011,8.79,31.64,0.0
5.86,-0.0754,1.401,10.208,-0.00142,-0.00597,-0.00412,0.0,25.887,0.198,0.0,8.805,0.01,8.805,31.7,0.0
5.87,0.1951,1.8801,9.2059,0.00714,-0.00861,0.00629,0.0,25.975,0.198,0.0,8.82,0.01,8.82,31.75,0.0
5.88,0.3335,1.7985,9.5647,0.00534,-0.0036,-0.01037,0.0,26.063,0.198,0.0,8.835,0.01,8.835,31.81,0.0
5.89,0.3102,1.7244,9.4808,-0.00661,-0.00269,-0.0095,0.0,26.152,0.198,0.0,8.85,0.01,8.85,31.86,0.0
5.9,-0.5607,2.0454,9.9128,0.00082,0.00602,-0.00864,0.0,26.24,0.198,0.0,8.865,0.01,8.865,31.91,0.0
5.91,0.1645,1.1624,10.4049,-2e-05,-0.0006,-0.00029,0.0,26.329,0.198,0.0,8.88,0.009,8.88,31.97,0.0
5.92,-0.2679,1.524,10.0223,0.0038,0.0011,0.00336,0.0,26.418,0.198,0.0,8.895,0.009,8.895,32.02,0.0
5.93,-0.3674,1.5761,9.0538,0.00348,-0.00698,0.01233,0.0,26.507,0.198,0.0,8.91,0.009,8.91,32.08,0.0
5.94,0.0216,1.7188,9.9455,0.0023,-0.00992,0.00633,0.0,26.596,0.199,0.0,8.925,0.009,8.925,32.13,0.0
5.95,0.0308,1.4342,9.3304,0.00385,0.00628,-0.00499,0.0,26.686,0.199,0.0,8.94,0.008,8.94,32.18,0.0
5.96,-0.3622,1.2175,9.9091,0.0004,0.00151,-0.00506,0.0,26.775,0.199,0.0,8.955,0.008,8.955,32.24,0.0
5.97,0.007,1.8733,9.6532,0.0011,-0.00098,-0.00012,0.0,26.865,0.199,0.0,8.97,0.008,8.97,32.29,0.0
5.98,0.2725,1.7438,9.9902,0.00158,-0.00085,0.00492,0.0,26.955,0.199,0.0,8.985,0.008,8.985,32.35,0.0
5.99,-0.2938,1.3188,10.0907,-0.00165,0.00322,-0.00117,0.0,27.045,0.199,0.0,9.0,0.007,9.0,32.4,0.0
6.0,-0.1098,1.5446,9.7756,0.01076,-0.00319,-0.0074,0.0,27.135,0.199,0.0,9.015,0.007,9.015,32.45,0.0
6.01,-0.3583,1.2137,9.6739,0.0047,-0.00046,0.00162,0.0,27.225,0.199,0.0,9.03,0.007,9.03,32.51,0.0
6.02,-0.2474,1.3379,9.823,0.00393,0.00185,0.00029,0.0,27.316,0.199,0.0,9.045,0.007,9.045,32.56,0.0
6.03,-0.0031,1.4321,9.3274,0.0016,0.00145,0.00663,0.0,27.406,0.199,0.0,9.06,0.006,9.06,32.62,0.0
6.04,0.246,1.5721,10.1048,-0.00316,-0.00905,0.00795,0.0,27.497,0.199,0.0,9.075,0.006,9.075,32.67,0.0
6.05,0.0718,1.3367,9.6203,-0.00112,-0.00087,0.00269,0.0,27.588,0.199,0.0,9.09,0.006,9.09,32.72,0.0
6.06,-0.164,1.6693,9.2919,0.00165,0.00213,6e-05,0.0,27.679,0.199,0.0,9.105,0.006,9.105,32.78,0.0
6.07,-0.2402,1.2038,9.3851,-0.00078,-0.00036,-0.0053,0.0,27.77,0.199,0.0,9.12,0.005,9.12,32.83,0.0
6.08,-0.0761,1.3868,10.2446,-5e-05,-0.00127,0.00302,0.0,27.862,0.199,0.0,9.135,0.005,9.135,32.89,0.0
6.09,-0.3045,1.4906,10.2439,-0.00611,0.00328,0.00193,0.0,27.953,0.2,0.0,9.15,0.005,9.15,32.94,0.0
6.1,0.1048,1.4272,9.4936,-0.00076,-0.00928,-0.00107,0.0,28.045,0.2,0.0,9.165,0.005,9.165,32.99,0.0
6.11,0.2347,1.7097,10.1102,0.00728,0.00043,0.00472,0.0,28.137,0.2,0.0,9.18,0.004,9.18,33.05,0.0
6.12,-0.0993,1.6789,9.9378,-0.00206,-0.00349,0.0002,0.0,28.229,0.2,0.0,9.195,0.004,9.195,33.1,0.0
6.13,0.0772,1.1925,10.4051,-0.00071,-0.00108,-0.00221,0.0,28.321,0.2,0.0,9.21,0.004,9.21,33.16,0.0
6.14,-0.3714,1.6275,9.9314,0.01039,-0.00439,0.00449,0.0,28.413,0.2,0.0,9.225,0.004,9.225,33.21,0.0
6.15,0.1471,1.1881,9.6416,0.00189,0.0066,-0.00619,0.0,28.505,0.2,0.0,9.24,0.003,9.24,33.26,0.0
6.16,-0.0486,1.5859,9.3387,0.00101,-0.01049,0.00453,0.0,28.598,0.2,0.0,9.255,0.003,9.255,33.32,0.0
6.17,0.2983,1.4994,10.4385,-0.00748,-0.00756,-0.00056,0.0,28.691,0.2,0.0,9.27,0.003,9.27,33.37,0.0
6.18,0.0214,1.6393,9.5659,-0.0036,0.00025,-0.00417,0.0,28.783,0.2,0.0,9.285,0.003,9.285,33.43,0.0
6.19,0.008,1.7968,9.8647,0.00047,2e-05,0.00104,0.0,28.876,0.2,0.0,9.3,0.002,9.3,33.48,0.0
6.2,-0.0748,1.168,9.7928,0.0055,-0.00985,0.00635,0.0,28.97,0.2,0.0,9.315,0.002,9.315,33.53,0.0
6.21,-0.2502,1.386,9.3234,-0.00245,-0.0032,0.00554,0.0,29.063,0.2,0.0,9.33,0.002,9.33,33.59,0.0
6.22,0.0533,1.8121,9.3989,-0.00044,-0.00123,-0.00072,0.0,29.156,0.2,0.0,9.345,0.002,9.345,33.64,0.0
6.23,-0.0224,1.5532,9.2749,0.00653,0.00332,-0.00275,0.0,29.25,0.2,0.0,9.36,0.001,9.36,33.7,0.0
6.24,0.0609,1.5881,9.9038,-0.00035,-0.0027,-0.00067,0.0,29.344,0.2,0.0,9.375,0.001,9.375,33.75,0.0
6.25,-0.1724,1.3352,9.5069,0.00204,-0.00825,0.00439,0.0,29.438,0.2,0.0,9.39,0.001,9.39,33.8,0.0
6.26,-0.3035,1.6206,10.2254,0.01014,-0.00152,0.00011,0.0,29.532,0.2,0.0,9.405,0.001,9.405,33.86,0.0
6.27,0.4064,2.0528,9.8334,-0.0,0.00176,0.00204,0.0,29.626,0.2,0.0,9.42,0.0,9.42,33.91,0.0
6.28,-0.2726,1.2538,9.8052,0.00329,-0.00894,-0.00403,0.0,29.72,0.2,0.0,9.435,0.0,9.435,33.97,0.0
6.29,0.1742,1.6524,9.7122,0.00286,0.0017,0.00692,0.0,29.815,0.2,0.0,9.45,-0.0,9.45,34.02,0.0
6.3,-0.42,1.6896,10.25,0.00037,0.0099,-0.0035,0.0,29.909,0.2,0.0,9.465,-0.0,9.465,34.07,0.0
6.31,0.1443,1.6602,10.1211,0.00044,0.00012,-0.00102,0.0,30.004,0.2,0.0,9.48,-0.001,9.48,34.13,0.0
6.32,-0.1287,1.5961,9.8972,0.00875,-0.00229,-0.00944,0.0,30.099,0.2,0.0,9.495,-0.001,9.495,34.18,0.0
6.33,-0.1234,1.6827,9.4635,0.00069,0.00137,-0.005,0.0,30.194,0.2,0.0,9.51,-0.001,9.51,34.24,0.0
6.34,0.3894,1.6296,10.1978,0.00488,0.00504,-0.00109,0.0,30.289,0.2,0.0,9.525,-0.001,9.525,34.29,0.0
6.35,-0.1784,1.6495,9.7386,0.00651,-0.00069,0.00243,0.0,30.385,0.2,0.0,9.54,-0.002,9.54,34.34,0.0
6.36,-0.0982,1.6763,8.8859,-0.00192,0.0,0.00272,0.0,30.48,0.2,0.0,9.555,-0.002,9.555,34.4,0.0
6.37,-0.1765,1.7471,9.8321,0.01006,0.00266,0.00228,0.0,30.576,0.2,0.0,9.57,-0.002,9.57,34.45,0.0
6.38,-0.1414,1.8663,10.3845,-0.01327,-0.00143,0.00821,0.0,30.672,0.2,0.0,9.585,-0.002,9.585,34.51,0.0
6.39,-0.2642,1.4707,9.8816,-0.0059,0.00586,-0.00957,0.0,30.768,0.2,0.0,9.6,-0.003,9.6,34.56,0.0
6.4,-0.2571,1.4945,10.1643,0.00382,-0.002,0.00938,0.0,30.864,0.2,0.0,9.615,-0.003,9.615,34.61,0.0
6.41,-0.2389,1.3541,10.277,-0.00359,0.00141,0.00338,0.0,30.96,0.2,0.0,9.63,-0.003,9.63,34.67,0.0
6.42,-0.1381,1.669,10.1969,0.00165,-0.00821,-0.00128,0.0,31.057,0.2,0.0,9.645,-0.003,9.645,34.72,0.0
6.43,0.4704,1.5876,10.2452,0.00394,-0.00631,0.00109,0.0,31.153,0.2,0.0,9.66,-0.004,9.66,34.78,0.0
6.44,-0.1625,1.5454,9.3858,0.00898,-0.00093,0.00063,0.0,31.25,0.2,0.0,9.675,-0.004,9.675,34.83,0.0
6.45,-0.0529,1.5942,9.5289,-0.00725,0.00199,0.00504,0.0,31.347,0.2,0.0,9.69,-0.004,9.69,34.88,0.0
6.46,-0.1241,1.1971,9.6609,-0.00381,-0.00814,0.00213,0.0,31.444,0.2,0.0,9.705,-0.004,9.705,34.94,0.0
6.47,-0.2355,1.5567,9.6452,0.00259,-0.00143,0.004,0.0,31.541,0.2,0.0,9.72,-0.005,9.72,34.99,0.0
6.48,-0.3018,1.8935,10.1223,-0.00831,-0.00271,-0.00823,0.0,31.639,0.199,0.0,9.735,-0.005,9.735,35.05,0.0
6.49,0.382,1.501,10.0293,0.00241,-0.00226,0.00351,0.0,31.736,0.199,0.0,9.75,-0.005,9.75,35.1,0.0
6.5,0.1934,1.3902,9.9915,-0.00237,0.00332,-0.00322,0.0,31.834,0.199,0.0,9.765,-0.005,9.765,35.15,0.0
6.51,0.2177,1.5531,9.9203,0.00339,-0.01335,-0.00387,0.0,31.932,0.199,0.0,9.78,-0.006,9.78,35.21,0.0
6.52,0.1049,1.725,9.729,0.00268,-0.004,-0.00103,0.0,32.03,0.199,0.0,9.795,-0.006,9.795,35.26,0.0
6.53,-0.0737,1.5466,9.834,-0.01085,-0.00905,0.00937,0.0,32.128,0.199,0.0,9.81,-0.006,9.81,35.32,0.0
6.54,0.2684,1.3832,9.5302,-0.00148,0.01057,-0.00314,0.0,32.226,0.199,0.0,9.825,-0.006,9.825,35.37,0.0
6.55,0.0855,1.2684,9.5677,-0.00251,-0.00288,0.00029,0.0,32.324,0.199,0.0,9.84,-0.007,9.84,35.42,0.0
6.56,0.0603,1.5999,9.7472,-0.00204,-0.00881,0.00137,0.0,32.423,0.199,0.0,9.855,-0.007,9.855,35.48,0.0
6.57,0.2632,1.7735,9.5993,-0.00704,-0.01248,-0.00293,0.0,32.522,0.199,0.0,9.87,-0.007,9.87,35.53,0.0
6.58,0.2057,1.5666,9.5656,0.00368,0.00631,-0.00551,0.0,32.62,0.199,0.0,9.885,-0.007,9.885,35.59,0.0
6.59,-0.0221,1.544,9.8363,-0.002,0.00136,0.00322,0.0,32.719,0.199,0.0,9.9,-0.008,9.9,35.64,0.0
6.6,0.1277,1.7704,9.8426,-0.0045,0.00232,-0.00491,0.0,32.819,0.199,0.0,9.915,-0.008,9.915,35.69,0.0
6.61,-0.326,1.2085,10.1674,3e-05,-0.00206,0.00435,0.0,32.918,0.199,0.0,9.93,-0.008,9.93,35.75,0.0
6.62,-0.0299,1.4972,9.8134,0.00237,-0.00572,-0.00371,0.0,33.017,0.199,0.0,9.945,-0.008,9.945,35.8,0.0
6.63,0.1822,1.2191,9.4473,-0.0077,0.00428,0.00152,0.0,33.117,0.198,0.0,9.96,-0.009,9.96,35.86,0.0
6.64,0.0334,1.4966,9.732,-0.00095,-0.00763,-0.0004,0.0,33.217,0.198,0.0,9.975,-0.009,9.975,35.91,0.0
6.65,0.4202,1.2397,9.9386,0.00917,0.0022,0.00847,0.0,33.317,0.198,0.0,9.99,-0.009,9.99,35.96,0.0
6.66,0.0628,1.4285,10.0634,0.00166,0.00116,0.00963,0.0,33.417,0.198,0.0,10.005,-0.009,10.005,36.02,0.0
6.67,-0.0053,1.8659,9.7134,0.0019,-0.00299,-0.00492,0.0,33.517,0.198,0.0,10.02,-0.01,10.02,36.07,0.0
6.68,-0.3639,1.6549,10.4824,-0.00936,0.00503,0.0001,0.0,33.617,0.198,0.0,10.035,-0.01,10.035,36.13,0.0
6.69,-0.0796,1.4736,9.7263,0.0044,-0.00876,-0.00183,0.0,33.718,0.198,0.0,10.05,-0.01,10.05,36.18,0.0
6.7,-0.0459,1.331,10.1716,0.00857,0.00254,0.00092,0.0,33.818,0.198,0.0,10.065,-0.01,10.065,36.23,0.0
6.71,0.0898,1.5069,9.3635,0.00119,-0.00857,-0.00116,0.0,33.919,0.198,0.0,10.08,-0.011,10.08,36.29,0.0
6.72,0.3626,1.6221,9.1491,0.00149,0.00259,-0.00324,0.0,34.02,0.198,0.0,10.095,-0.011,10.095,36.34,0.0
6.73,-0.2691,1.7232,10.1651,-0.0038,0.00132,-0.00267,0.0,34.121,0.197,0.0,10.11,-0.011,10.11,36.4,0.0
6.74,-0.5126,1.5497,9.7154,-0.00463,-0.0027,-0.00143,0.0,34.222,0.197,0.0,10.125,-0.011,10.125,36.45,0.0
6.75,-0.3854,1.4569,10.174,0.00099,-0.00296,-0.00302,0.0,34.324,0.197,0.0,10.14,-0.012,10.14,36.5,0.0
6.76,0.1979,1.4095,10.1712,0.00193,-0.00355,-0.0043,0.0,34.425,0.197,0.0,10.155,-0.012,10.155,36.56,0.0
6.77,0.3045,1.6556,9.0759,0.00017,0.00221,-0.00769,0.0,34.527,0.197,0.0,10.17,-0.012,10.17,36.61,0.0
6.78,-0.0136,1.7434,10.0115,-0.0052,0.005,-0.00054,0.0,34.629,0.197,0.0,10.185,-0.012,10.185,36.67,0.0
6.79,-0.0241,1.5691,9.2218,0.00468,0.00049,-3e-05,0.0,34.731,0.197,0.0,10.2,-0.013,10.2,36.72,0.0
6.8,-0.3398,1.4152,9.8394,0.00931,-0.00072,-0.00208,0.0,34.833,0.197,0.0,10.215,-0.013,10.215,36.77,0.0
6.81,-0.0687,1.6188,9.1942,0.00054,0.00212,0.00498,0.0,34.935,0.196,0.0,10.23,-0.013,10.23,36.83,0.0
6.82,-0.1618,1.3847,9.8428,0.00026,-0.00374,0.00704,0.0,35.038,0.196,0.0,10.245,-0.013,10.245,36.88,0.0
6.83,-0.1321,1.4388,10.2388,-0.00621,0.00395,-0.00127,0.0,35.14,0.196,0.0,10.26,-0.014,10.26,36.94,0.0
6.84,-0.3145,1.6126,10.3869,-0.00093,-0.00012,0.00155,0.0,35.243,0.196,0.0,10.275,-0.014,10.275,36.99,0.0
6.85,-0.1933,1.6318,9.7271,-0.0031,0.00274,-0.00421,0.0,35.346,0.196,0.0,10.29,-0.014,10.29,37.04,0.0
6.86,-0.418,1.8088,9.4494,0.00523,-0.00427,0.00437,0.0,35.449,0.196,0.0,10.305,-0.014,10.305,37.1,0.0
6.87,-0.1792,1.2964,10.1928,-0.00594,-0.00471,-0.00085,0.0,35.552,0.196,0.0,10.32,-0.014,10.32,37.15,0.0
6.88,-0.0327,1.5706,10.1015,0.001,-0.00306,-0.00203,0.0,35.656,0.195,0.0,10.335,-0.015,10.335,37.21,0.0
6.89,-0.1521,1.5292,9.694,0.00023,-0.00305,0.0026,0.0,35.759,0.195,0.0,10.35,-0.015,10.35,37.26,0.0
6.9,0.0693,1.4355,10.2289,0.00036,-0.00212,-0.0073,0.0,35.863,0.195,0.0,10.365,-0.015,10.365,37.31,0.0
6.91,0.4456,1.544,9.8179,-0.00657,-0.00089,0.00396,0.0,35.967,0.195,0.0,10.38,-0.015,10.38,37.37,0.0
6.92,0.1606,1.6862,9.9017,0.00335,-0.0022,0.00979,0.0,36.071,0.195,0.0,10.395,-0.016,10.395,37.42,0.0
6.93,-0.1309,1.6803,9.5756,0.00697,-5e-05,0.00474,0.0,36.175,0.195,0.0,10.41,-0.016,10.41,37.48,0.0
6.94,0.508,1.2397,9.993,0.00556,-0.00311,0.00129,0.0,36.279,0.195,0.0,10.425,-0.016,10.425,37.53,0.0
6.95,-0.2391,1.5194,10.2888,-0.00252,3e-05,-0.00255,0.0,36.383,0.194,0.0,10.44,-0.016,10.44,37.58,0.0
6.96,-0.0921,1.566,9.757,0.00668,0.00572,-0.00238,0.0,36.488,0.194,0.0,10.455,-0.017,10.455,37.64,0.0
6.97,-0.2141,1.5812,10.0417,-0.00233,-0.00108,-0.00381,0.0,36.593,0.194,0.0,10.47,-0.017,10.47,37.69,0.0
6.98,0.3689,1.5443,9.7631,-0.00916,-0.00676,-0.00607,0.0,36.697,0.194,0.0,10.485,-0.017,10.485,37.75,0.0
6.99,0.0395,1.533,9.096,-0.01178,2e-05,-0.00577,0.0,36.802,0.194,0.0,10.5,-0.017,10.5,37.8,0.0
7.0,-0.2896,1.4399,10.0696,0.00147,-0.00114,0.00097,0.0,36.908,0.194,0.0,10.515,-0.018,10.515,37.85,0.0
7.01,-0.1362,1.4762,9.6771,-0.00858,0.00172,-0.00041,0.0,37.013,0.193,0.0,10.53,-0.018,10.53,37.91,0.0
7.02,0.0755,1.3792,9.8585,0.0003,0.00564,0.00066,0.0,37.118,0.193,0.0,10.545,-0.018,10.545,37.96,0.0
7.03,0.1607,1.6158,9.8375,-0.01129,-0.00756,0.01005,0.0,37.224,0.193,0.0,10.56,-0.018,10.56,38.02,0.0
7.04,-0.0951,1.5025,9.7942,-0.01063,-0.01069,0.0067,0.0,37.33,0.193,0.0,10.575,-0.018,10.575,38.07,0.0
7.05,0.1638,1.5278,9.9737,-0.00217,-0.00341,0.00076,0.0,37.436,0.193,0.0,10.59,-0.019,10.59,38.12,0.0
7.06,-0.1756,1.7201,10.1097,0.00316,-0.00831,0.00072,0.0,37.542,0.192,0.0,10.605,-0.019,10.605,38.18,0.0
7.07,0.0941,1.7569,9.6871,-0.00333,-0.00017,-0.00247,0.0,37.648,0.192,0.0,10.62,-0.019,10.62,38.23,0.0
7.08,0.089,1.415,9.9013,0.00464,-0.00141,-0.00245,0.0,37.754,0.192,0.0,10.635,-0.019,10.635,38.29,0.0
7.09,-0.0503,1.5801,9.27,0.0039,-0.00067,0.00072,0.0,37.861,0.192,0.0,10.65,-0.02,10.65,38.34,0.0
7.1,0.0837,1.344,9.7039,0.00075,7e-05,-0.00494,0.0,37.967,0.192,0.0,10.665,-0.02,10.665,38.39,0.0
7.11,-0.048,1.6623,10.2463,-0.00593,-6e-05,-0.00508,0.0,38.074,0.191,0.0,10.68,-0.02,10.68,38.45,0.0
7.12,-0.3239,1.673,9.986,-0.00084,-0.00165,0.00398,0.0,38.181,0.191,0.0,10.695,-0.02,10.695,38.5,0.0
7.13,-0.0252,1.8343,9.5463,-0.00063,-0.00086,0.00352,0.0,38.288,0.191,0.0,10.71,-0.021,10.71,38.56,0.0
7.14,-0.4461,1.7871,9.6643,0.00432,0.00099,-0.00137,0.0,38.395,0.191,0.0,10.725,-0.021,10.725,38.61,0.0
7.15,0.4177,1.5282,10.0986,0.00052,0.00157,0.0101,0.0,38.503,0.191,0.0,10.74,-0.021,10.74,38.66,0.0
7.16,0.2315,1.469,9.7374,-0.00943,0.00041,0.00438,0.0,38.61,0.19,0.0,10.755,-0.021,10.755,38.72,0.0
7.17,0.2323,1.8008,9.2724,-0.00315,0.0042,-0.00104,0.0,38.718,0.19,0.0,10.77,-0.021,10.77,38.77,0.0
7.18,0.2703,1.9603,9.5095,0.00271,-0.00209,0.0068,0.0,38.826,0.19,0.0,10.785,-0.022,10.785,38.83,0.0
7.19,-0.5014,1.5538,9.5134,0.00171,0.00869,0.00889,0.0,38.934,0.19,0.0,10.8,-0.022,10.8,38.88,0.0
7.2,-0.5594,1.5325,9.6678,-0.00431,0.01449,0.00179,0.0,39.042,0.19,0.0,10.815,-0.022,10.815,38.93,0.0
7.21,0.2724,1.0705,9.5635,-0.00952,0.00093,0.00542,0.0,39.15,0.189,0.0,10.83,-0.022,10.83,38.99,0.0
7.22,0.0042,1.7598,9.5231,0.006,-0.00353,-0.00127,0.0,39.259,0.189,0.0,10.845,-0.023,10.845,39.04,0.0
7.23,-0.5823,1.7377,9.8764,0.00674,0.00448,-0.00086,0.0,39.367,0.189,0.0,10.86,-0.023,10.86,39.1,0.0
7.24,-0.2167,1.3058,10.0816,0.00108,-0.01007,0.0034,0.0,39.476,0.189,0.0,10.875,-0.023,10.875,39.15,0.0
7.25,-0.3562,1.3702,9.628,-0.00106,0.00634,-0.00551,0.0,39.585,0.188,0.0,10.89,-0.023,10.89,39.2,0.0
7.26,-0.2994,1.2302,10.081,-0.00238,-0.00409,0.00313,0.0,39.694,0.188,0.0,10.905,-0.023,10.905,39.26,0.0
7.27,0.0535,1.4028,9.8599,-0.01302,-0.00758,-0.00432,0.0,39.803,0.188,0.0,10.92,-0.024,10.92,39.31,0.0
7.28,-0.4022,1.6812,9.9265,-0.00838,-0.01048,0.00713,0.0,39.913,0.188,0.0,10.935,-0.024,10.935,39.37,0.0
7.29,0.3646,1.3413,9.6976,-0.00014,-0.00611,8e-05,0.0,40.022,0.187,0.0,10.95,-0.024,10.95,39.42,0.0
7.3,0.2588,1.4883,10.2192,0.00051,0.00876,0.00098,0.0,40.132,0.187,0.0,10.965,-0.024,10.965,39.47,0.0
7.31,0.0702,1.5005,9.9011,0.0035,-0.00114,0.01013,0.0,40.242,0.187,0.0,10.98,-0.025,10.98,39.53,0.0
7.32,-0.0366,1.4061,9.4806,-0.00409,0.00035,-0.00073,0.0,40.352,0.187,0.0,10.995,-0.025,10.995,39.58,0.0
7.33,0.1402,1.7178,9.6845,-0.00086,0.0062,-0.00456,0.0,40.462,0.186,0.0,11.01,-0.025,11.01,39.64,0.0
7.34,-0.0904,1.5738,9.2704,0.00897,0.00051,-0.00607,0.0,40.572,0.186,0.0,11.025,-0.025,11.025,39.69,0.0
7.35,0.225,1.3396,10.2457,-0.00378,0.00406,-0.00984,0.0,40.682,0.186,0.0,11.04,-0.025,11.04,39.74,0.0
7.36,0.1123,1.494,10.0155,0.00749,-0.00343,0.00207,0.0,40.793,0.186,0.0,11.055,-0.026,11.055,39.8,0.0
7.37,-0.0249,1.4671,10.1408,0.0098,0.00025,-0.00821,0.0,40.904,0.185,0.0,11.07,-0.026,11.07,39.85,0.0
7.38,0.1369,1.4853,9.7366,-0.00197,-0.00266,-0.00475,0.0,41.014,0.185,0.0,11.085,-0.026,11.085,39.91,0.0
7.39,-0.1487,1.3747,10.1541,0.00605,-0.00201,-0.00016,0.0,41.125,0.185,0.0,11.1,-0.026,11.1,39.96,0.0
7.4,-0.0174,1.2784,10.1507,-0.00602,0.00064,-0.00365,0.0,41.237,0.185,0.0,11.115,-0.027,11.115,40.01,0.0
7.41,0.0002,1.5837,9.2011,-0.00974,0.00296,-0.00531,0.0,41.348,0.184,0.0,11.13,-0.027,11.13,40.07,0.0
7.42,-0.326,1.5147,9.9237,-0.00521,0.01627,-0.00202,0.0,41.459,0.184,0.0,11.145,-0.027,11.145,40.12,0.0
7.43,0.2531,1.6162,10.2603,-0.00559,-0.0016,0.00061,0.0,41.571,0.184,0.0,11.16,-0.027,11.16,40.18,0.0
7.44,-0.2492,1.194,10.0529,0.00372,-0.00026,0.0035,0.0,41.683,0.184,0.0,11.175,-0.027,11.175,40.23,0.0
7.45,-0.0932,1.3945,9.6727,-0.00167,0.00424,0.00656,0.0,41.795,0.183,0.0,11.19,-0.028,11.19,40.28,0.0
7.46,0.1025,1.0872,10.2995,-0.01052,-0.00658,-0.0025,0.0,41.907,0.183,0.0,11.205,-0.028,11.205,40.34,0.0
7.47,0.0958,1.6058,10.265,0.00102,0.00931,0.00237,0.0,42.019,0.183,0.0,11.22,-0.028,11.22,40.39,0.0
7.48,-0.1849,1.1414,10.0655,-0.00675,0.00863,-0.00211,0.0,42.131,0.182,0.0,11.235,-0.028,11.235,40.45,0.0
7.49,0.3794,1.6655,9.8395,3e-05,-0.00233,-0.00284,0.0,42.244,0.182,0.0,11.25,-0.028,11.25,40.5,0.0
7.5,0.0983,1.4195,10.1167,-0.00937,-0.00388,0.00105,0.0,42.356,0.182,0.0,11.265,-0.029,11.265,40.55,0.0
7.51,-0.0988,1.6052,9.5051,0.00046,0.00379,0.00148,0.0,42.469,0.182,0.0,11.28,-0.029,11.28,40.61,0.0
7.52,-0.0953,1.9569,9.7005,-0.00095,0.00211,0.00379,0.0,42.582,0.181,0.0,11.295,-0.029,11.295,40.66,0.0
7.53,0.189,1.2063,9.9698,-0.00137,0.00134,-0.00088,0.0,42.695,0.181,0.0,11.31,-0.029,11.31,40.72,0.0
7.54,0.072,1.7012,9.8406,-0.01092,-0.01005,-0.00157,0.0,42.808,0.181,0.0,11.325,-0.029,11.325,40.77,0.0
7.55,0.0948,1.5194,9.848,0.00764,0.00663,-0.00718,0.0,42.922,0.18,0.0,11.34,-0.03,11.34,40.82,0.0
7.56,-0.2739,1.6291,10.2348,0.00548,0.00287,-0.0046,0.0,43.035,0.18,0.0,11.355,-0.03,11.355,40.88,0.0
7.57,0.1566,1.4891,9.5101,0.0049,-0.00739,-0.00711,0.0,43.149,0.18,0.0,11.37,-0.03,11.37,40.93,0.0
7.58,0.0478,1.5793,10.2131,-0.00449,0.00422,-0.00288,0.0,43.263,0.18,0.0,11.385,-0.03,11.385,40.99,0.0
7.59,0.0311,1.6614,9.6501,0.00311,-0.00152,-0.00274,0.0,43.377,0.179,0.0,11.4,-0.03,11.4,41.04,0.0
7.6,-0.1371,1.4866,9.3508,-0.00115,4e-05,-0.00572,0.0,43.491,0.179,0.0,11.415,-0.031,11.415,41.09,0.0
7.61,0.5713,1.6209,10.3886,-0.00339,0.00944,-0.00353,0.0,43.605,0.179,0.0,11.43,-0.031,11.43,41.15,0.0
7.62,-0.1991,1.6949,10.1,-0.00516,-0.00109,-0.01286,0.0,43.72,0.178,0.0,11.445,-0.031,11.445,41.2,0.0
7.63,0.1679,1.4572,9.5201,0.00535,0.00247,0.00161,0.0,43.834,0.178,0.0,11.46,-0.031,11.46,41.26,0.0
7.64,-0.0338,1.7375,10.4311,0.00039,-0.0003,-0.00682,0.0,43.949,0.178,0.0,11.475,-0.031,11.475,41.31,0.0
7.65,0.0727,1.3334,10.1681,-0.01202,0.00701,0.00251,0.0,44.064,0.177,0.0,11.49,-0.032,11.49,41.36,0.0
7.66,0.2578,1.3018,10.1789,-0.00155,-0.00122,0.00725,0.0,44.179,0.177,0.0,11.505,-0.032,11.505,41.42,0.0
7.67,-0.0785,1.5506,9.9717,0.00297,-0.00093,0.00056,0.0,44.294,0.177,0.0,11.52,-0.032,11.52,41.47,0.0
7.68,-0.0626,1.6671,9.4155,-0.0002,0.00111,-0.00592,0.0,44.41,0.176,0.0,11.535,-0.032,11.535,41.53,0.0
7.69,-0.0443,1.4233,9.5945,0.00838,0.00159,0.00061,0.0,44.525,0.176,0.0,11.55,-0.032,11.55,41.58,0.0
7.7,0.2589,1.0368,9.5234,0.00307,-0.00206,0.00196,0.0,44.641,0.176,0.0,11.565,-0.033,11.565,41.63,0.0
7.71,0.3684,1.422,9.4649,-0.0047,0.0058,0.00778,0.0,44.757,0.175,0.0,11.58,-0.033,11.58,41.69,0.0
7.72,0.4006,1.5666,9.7281,-0.00047,0.0018,0.00253,0.0,44.873,0.175,0.0,11.595,-0.033,11.595,41.74,0.0
7.73,-0.0299,1.5039,9.5456,0.00352,0.0018,0.00295,0.0,44.989,0.175,0.0,11.61,-0.033,11.61,41.8,0.0
7.74,0.2214,1.6001,9.6703,-0.00174,-0.00296,-0.0032,0.0,45.105,0.174,0.0,11.625,-0.033,11.625,41.85,0.0
7.75,-0.2196,1.5327,10.1351,-0.00103,0.00424,0.00743,0.0,45.221,0.174,0.0,11.64,-0.033,11.64,41.9,0.0
7.76,-0.0252,1.5178,10.1113,-0.00446,-0.00123,-0.00114,0.0,45.338,0.174,0.0,11.655,-0.034,11.655,41.96,0.0
7.77,-0.1283,1.8426,9.3542,0.00464,-0.00061,-0.00119,0.0,45.455,0.173,0.0,11.67,-0.034,11.67,42.01,0.0
7.78,0.0289,1.7012,9.8133,-0.00374,-0.00019,-0.00384,0.0,45.571,0.173,0.0,11.685,-0.034,11.685,42.07,0.0
7.79,-0.1332,1.9353,9.8817,-0.00253,-0.00419,-0.00322,0.0,45.688,0.173,0.0,11.7,-0.034,11.7,42.12,0.0
7.8,-0.1203,1.4269,9.9057,0.00738,-0.00153,-0.00155,0.0,45.806,0.172,0.0,11.715,-0.034,11.715,42.17,0.0
7.81,0.0847,1.5357,9.5355,-0.00332,-0.00597,0.00229,0.0,45.923,0.172,0.0,11.73,-0.035,11.73,42.23,0.0
7.82,-0.0397,1.382,9.6659,0.00305,0.00418,-0.01063,0.0,46.04,0.172,0.0,11.745,-0.035,11.745,42.28,0.0
7.83,0.179,1.4489,9.1356,-0.00447,-0.00053,-0.00659,0.0,46.158,0.171,0.0,11.76,-0.035,11.76,42.34,0.0
7.84,-0.3731,1.509,9.8234,0.00288,0.00245,0.00676,0.0,46.276,0.171,0.0,11.775,-0.035,11.775,42.39,0.0
7.85,-0.006,1.486,9.2817,0.00575,-0.00149,0.00246,0.0,46.394,0.171,0.0,11.79,-0.035,11.79,42.44,0.0
7.86,-0.1462,1.8173,9.8388,0.00261,0.00031,-0.00407,0.0,46.512,0.17,0.0,11.805,-0.035,11.805,42.5,0.0
7.87,-0.0487,1.7568,9.9633,0.00162,-0.00913,0.00554,0.0,46.63,0.17,0.0,11.82,-0.036,11.82,42.55,0.0
7.88,0.2934,1.7271,10.4029,-9e-05,1e-05,-0.00424,0.0,46.748,0.17,0.0,11.835,-0.036,11.835,42.61,0.0
7.89,0.1724,1.4302,9.7013,-0.00215,0.00437,0.00177,0.0,46.867,0.169,0.0,11.85,-0.036,11.85,42.66,0.0
7.9,0.2459,1.4823,9.8753,0.00236,-0.011,-0.00125,0.0,46.985,0.169,0.0,11.865,-0.036,11.865,42.71,0.0
7.91,0.6158,1.7416,10.7227,0.00145,-0.00354,-0.00861,0.0,47.104,0.168,0.0,11.88,-0.036,11.88,42.77,0.0
7.92,0.1007,1.7203,9.7948,-0.00713,-0.00066,0.00019,0.0,47.223,0.168,0.0,11.895,-0.037,11.895,42.82,0.0
7.93,-0.3598,1.4122,10.1481,-0.00209,-0.00752,-0.00481,0.0,47.342,0.168,0.0,11.91,-0.037,11.91,42.88,0.0
7.94,-0.0214,1.0221,9.624,0.00455,-0.00166,0.00342,0.0,47.461,0.167,0.0,11.925,-0.037,11.925,42.93,0.0
7.95,-0.1507,1.2408,9.5631,0.00217,-0.00652,0.00107,0.0,47.581,0.167,0.0,11.94,-0.037,11.94,42.98,0.0
7.96,-0.2756,1.2582,9.1034,-0.01489,0.00407,-0.00285,0.0,47.7,0.167,0.0,11.955,-0.037,11.955,43.04,0.0
7.97,0.1981,1.4189,10.7641,-0.00363,-0.00476,-0.00647,0.0,47.82,0.166,0.0,11.97,-0.037,11.97,43.09,0.0
7.98,-0.0669,1.6557,9.8102,0.00606,0.00028,-0.00086,0.0,47.94,0.166,0.0,11.985,-0.038,11.985,43.15,0.0
7.99,0.243,1.4047,9.2716,-0.00091,-0.00776,-0.00016,0.0,48.06,0.166,0.0,12.0,-0.038,12.0,43.2,0.0
8.0,-0.1221,1.3424,9.8739,-0.00592,-0.00235,-0.00436,0.0,48.18,0.165,0.0,12.015,-0.038,12.015,43.25,0.0
8.01,-0.5227,1.742,9.7466,-0.00405,-0.00058,-0.00605,0.0,48.3,0.165,0.0,12.03,-0.038,12.03,43.31,0.0
8.02,-0.0581,1.0444,9.9698,-0.004,0.00156,-0.00232,0.0,48.421,0.164,0.0,12.045,-0.038,12.045,43.36,0.0
8.03,-0.3116,1.5889,10.037,0.00387,0.00057,0.0062,0.0,48.541,0.164,0.0,12.06,-0.038,12.06,43.42,0.0
8.04,-0.0825,1.9061,10.1305,0.00368,0.00096,0.00467,0.0,48.662,0.164,0.0,12.075,-0.038,12.075,43.47,0.0
8.05,-0.4141,1.7843,10.2716,0.00737,0.00313,-0.00397,0.0,48.783,0.163,0.0,12.09,-0.039,12.09,43.52,0.0
8.06,-0.3324,1.5029,9.6519,-0.00143,0.00013,-0.00532,0.0,48.904,0.163,0.0,12.105,-0.039,12.105,43.58,0.0
8.07,-0.1208,1.5241,9.7356,-0.01354,0.00236,-0.00354,0.0,49.025,0.162,0.0,12.12,-0.039,12.12,43.63,0.0
8.08,0.0059,1.1314,9.3234,-0.00319,0.00638,0.00214,0.0,49.147,0.162,0.0,12.135,-0.039,12.135,43.69,0.0
8.09,-0.2657,1.6753,9.9209,0.0027,0.00024,-0.00012,0.0,49.268,0.162,0.0,12.15,-0.039,12.15,43.74,0.0
8.1,0.3015,1.4597,9.5458,0.00387,-0.0006,0.00983,0.0,49.39,0.161,0.0,12.165,-0.039,12.165,43.79,0.0
8.11,0.0353,1.2587,9.9178,0.00748,-0.00403,-0.00048,0.0,49.512,0.161,0.0,12.18,-0.04,12.18,43.85,0.0
8.12,0.1107,1.5898,9.898,0.00857,-0.00346,0.00278,0.0,49.634,0.16,0.0,12.195,-0.04,12.195,43.9,0.0
8.13,-0.1067,1.4862,8.9012,0.00232,-0.00279,-0.00263,0.0,49.756,0.16,0.0,12.21,-0.04,12.21,43.96,0.0
8.14,0.4566,1.4088,10.4345,-0.00511,-0.00693,-0.00357,0.0,49.878,0.16,0.0,12.225,-0.04,12.225,44.01,0.0
8.15,-0.0242,1.5544,9.6641,-0.00389,-0.00794,0.0042,0.0,50.0,0.159,0.0,12.24,-0.04,12.24,44.06,0.0
8.16,-0.0853,1.6383,9.773,-0.00041,-0.00409,0.00364,0.0,50.123,0.159,0.0,12.255,-0.04,12.255,44.12,0.0
8.17,0.3345,1.7048,9.9317,-0.00833,0.00494,-0.00039,0.0,50.246,0.158,0.0,12.27,-0.04,12.27,44.17,0.0
8.18,0.27,1.6884,9.5384,0.00901,-0.00839,-0.00456,0.0,50.368,0.158,0.0,12.285,-0.041,12.285,44.23,0.0
8.19,-0.2072,1.8269,8.7712,0.00241,-0.00479,-0.00033,0.0,50.491,0.158,0.0,12.3,-0.041,12.3,44.28,0.0
8.2,0.2272,1.6076,9.7192,-0.00867,-0.00618,0.00396,0.0,50.615,0.157,0.0,12.315,-0.041,12.315,44.33,0.0
8.21,-0.5495,1.2111,9.4524,0.00471,0.00337,-0.00066,0.0,50.738,0.157,0.0,12.33,-0.041,12.33,44.39,0.0
8.22,-0.2718,1.3143,9.8656,0.0021,0.00194,-0.00171,0.0,50.861,0.156,0.0,12.345,-0.041,12.345,44.44,0.0
8.23,-0.2581,1.7303,9.6368,0.00137,0.00104,-0.00162,0.0,50.985,0.156,0.0,12.36,-0.041,12.36,44.5,0.0
8.24,-0.3122,1.6818,9.5475,-0.00528,0.00341,-0.00011,0.0,51.109,0.156,0.0,12.375,-0.041,12.375,44.55,0.0
8.25,0.4541,1.6348,9.5852,0.00338,-0.00422,0.00148,0.0,51.233,0.155,0.0,12.39,-0.042,12.39,44.6,0.0
8.26,-0.0544,1.2263,10.2848,-0.00076,-0.00378,0.00713,0.0,51.357,0.155,0.0,12.405,-0.042,12.405,44.66,0.0
8.27,-0.3135,1.4972,9.5517,0.00458,-0.00374,-0.00667,0.0,51.481,0.154,0.0,12.42,-0.042,12.42,44.71,0.0
8.28,-0.5309,1.5883,10.4291,-0.0065,-0.00761,0.00981,0.0,51.605,0.154,0.0,12.435,-0.042,12.435,44.77,0.0
8.29,-0.3376,1.4846,9.4628,-0.00474,0.00426,-0.0026,0.0,51.73,0.154,0.0,12.45,-0.042,12.45,44.82,0.0
8.3,0.3465,1.7808,9.518,0.00116,-0.005,0.00417,0.0,51.854,0.153,0.0,12.465,-0.042,12.465,44.87,0.0
8.31,0.2461,1.2996,9.6289,0.00564,-0.00304,8e-05,0.0,51.979,0.153,0.0,12.48,-0.042,12.48,44.93,0.0
8.32,0.1176,1.6331,10.042,-0.00707,-0.00856,0.0021,0.0,52.104,0.152,0.0,12.495,-0.043,12.495,44.98,0.0
8.33,0.0672,1.4608,9.6283,-0.0025,-0.00062,0.00039,0.0,52.229,0.152,0.0,12.51,-0.043,12.51,45.04,0.0
8.34,0.0257,1.4848,9.7683,0.0014,-0.00904,0.00211,0.0,52.354,0.151,0.0,12.525,-0.043,12.525,45.09,0.0
8.35,0.2732,1.4566,8.8592,0.00261,-0.00301,0.00712,0.0,52.48,0.151,0.0,12.54,-0.043,12.54,45.14,0.0
8.36,0.1869,1.3333,9.8226,0.00093,0.0032,0.00317,0.0,52.605,0.151,0.0,12.555,-0.043,12.555,45.2,0.0
8.37,-0.2661,1.3173,9.8867,0.00159,-0.00339,0.00645,0.0,52.731,0.15,0.0,12.57,-0.043,12.57,45.25,0.0
8.38,0.0088,1.4224,10.244,0.00678,-0.00419,-0.00472,0.0,52.857,0.15,0.0,12.585,-0.043,12.585,45.31,0.0
8.39,0.0954,1.5151,10.3153,-0.00067,-0.00385,-0.0003,0.0,52.983,0.149,0.0,12.6,-0.043,12.6,45.36,0.0
8.4,0.0759,1.509,9.3579,0.00405,-0.00287,9e-05,0.0,53.109,0.149,0.0,12.615,-0.044,12.615,45.41,0.0
8.41,0.311,1.2484,10.075,-0.00023,0.00113,-0.00211,0.0,53.235,0.148,0.0,12.63,-0.044,12.63,45.47,0.0
8.42,0.4133,1.5118,9.1622,0.00347,-0.00355,0.00229,0.0,53.362,0.148,0.0,12.645,-0.044,12.645,45.52,0.0
8.43,-0.2198,1.3187,8.9996,-0.0049,-0.00733,-0.00849,0.0,53.488,0.147,0.0,12.66,-0.044,12.66,45.58,0.0
8.44,0.3046,1.526,10.4219,0.0048,0.00055,-0.00353,0.0,53.615,0.147,0.0,12.675,-0.044,12.675,45.63,0.0
8.45,-0.2036,1.4926,10.1583,-0.00565,0.00587,0.00473,0.0,53.742,0.147,0.0,12.69,-0.044,12.69,45.68,0.0
8.46,-0.0773,1.4223,10.2136,0.00631,-0.00138,-0.01249,0.0,53.869,0.146,0.0,12.705,-0.044,12.705,45.74,0.0
8.47,0.2203,1.5039,9.8922,-0.00161,-0.00458,-0.00667,0.0,53.996,0.146,0.0,12.72,-0.044,12.72,45.79,0.0
8.48,-0.4177,1.4872,10.8104,-0.00825,0.00404,0.00043,0.0,54.124,0.145,0.0,12.735,-0.045,12.735,45.85,0.0
8.49,-0.2752,1.4638,10.5412,-0.00107,0.00238,0.00275,0.0,54.251,0.145,0.0,12.75,-0.045,12.75,45.9,0.0
8.5,0.2523,1.5814,10.1044,-0.00454,0.00029,-0.01197,0.0,54.379,0.144,0.0,12.765,-0.045,12.765,45.95,0.0
8.51,-0.5317,1.4893,9.9154,0.002,0.00267,0.00293,0.0,54.507,0.144,0.0,12.78,-0.045,12.78,46.01,0.0
8.52,-0.0522,1.7784,8.9132,0.00206,-0.00774,0.00559,0.0,54.635,0.143,0.0,12.795,-0.045,12.795,46.06,0.0
8.53,0.1547,1.4728,9.5129,0.00044,0.00368,0.00217,0.0,54.763,0.143,0.0,12.81,-0.045,12.81,46.12,0.0
8.54,-0.1049,1.4372,9.4278,-0.00965,-0.00333,-0.00381,0.0,54.891,0.143,0.0,12.825,-0.045,12.825,46.17,0.0
8.55,0.0981,1.165,9.989,0.0117,0.00532,0.00675,0.0,55.019,0.142,0.0,12.84,-0.045,12.84,46.22,0.0
8.56,0.0908,1.4575,9.7565,-0.0099,-0.00035,-0.00134,0.0,55.148,0.142,0.0,12.855,-0.045,12.855,46.28,0.0
8.57,-0.0596,1.3253,9.9921,0.00457,0.00201,-0.00285,0.0,55.277,0.141,0.0,12.87,-0.046,12.87,46.33,0.0
8.58,0.4568,1.5916,10.1229,-0.00092,0.01085,-0.00334,0.0,55.405,0.141,0.0,12.885,-0.046,12.885,46.39,0.0
8.59,-0.1527,1.1038,10.02,0.00329,-0.00764,-0.00329,0.0,55.534,0.14,0.0,12.9,-0.046,12.9,46.44,0.0
8.6,0.0071,1.1695,9.7397,0.00116,-0.01184,0.00205,0.0,55.664,0.14,0.0,12.915,-0.046,12.915,46.49,0.0
8.61,0.1336,1.512,10.0646,-0.00398,0.00987,0.00652,0.0,55.793,0.139,0.0,12.93,-0.046,12.93,46.55,0.0
8.62,0.2305,1.44,9.8142,0.00175,0.00841,0.00278,0.0,55.922,0.139,0.0,12.945,-0.046,12.945,46.6,0.0
8.63,-0.0437,1.4942,9.203,0.00733,-0.00171,0.00522,0.0,56.052,0.138,0.0,12.96,-0.046,12.96,46.66,0.0
8.64,-0.1751,1.841,10.4999,-0.0025,-0.00294,-0.00398,0.0,56.182,0.138,0.0,12.975,-0.046,12.975,46.71,0.0
8.65,-0.0504,1.4119,9.5989,0.00256,0.00038,0.00193,0.0,56.312,0.138,0.0,12.99,-0.046,12.99,46.76,0.0
8.66,0.1626,1.6442,9.8975,0.00052,0.00585,0.0052,0.0,56.442,0.137,0.0,13.005,-0.046,13.005,46.82,0.0
8.67,0.0457,1.4941,10.1841,-0.00137,-0.0079,0.00311,0.0,56.572,0.137,0.0,13.02,-0.046,13.02,46.87,0.0
8.68,0.2973,1.5773,9.7306,0.00317,-0.00559,-0.00503,0.0,56.702,0.136,0.0,13.035,-0.047,13.035,46.93,0.0
8.69,0.1278,1.453,10.9462,-0.00395,0.00154,0.00222,0.0,56.833,0.136,0.0,13.05,-0.047,13.05,46.98,0.0
8.7,-0.2671,1.4685,9.712,-0.00871,-0.01724,-0.00895,0.0,56.963,0.135,0.0,13.065,-0.047,13.065,47.03,0.0
8.71,-0.1431,1.4485,9.7651,-0.00095,-0.00294,-0.0097,0.0,57.094,0.135,0.0,13.08,-0.047,13.08,47.09,0.0
8.72,0.0372,1.7443,9.7445,0.00357,0.00029,-0.00638,0.0,57.225,0.134,0.0,13.095,-0.047,13.095,47.14,0.0
8.73,-0.2523,1.8018,9.6022,0.00077,0.00363,0.00569,0.0,57.356,0.134,0.0,13.11,-0.047,13.11,47.2,0.0
8.74,0.2288,1.5687,9.3132,-0.00052,0.0018,0.0045,0.0,57.487,0.133,0.0,13.125,-0.047,13.125,47.25,0.0
8.75,-0.3662,1.5957,9.4631,-0.00103,0.00489,-0.00939,0.0,57.619,0.133,0.0,13.14,-0.047,13.14,47.3,0.0
8.76,0.5225,1.2554,9.4569,0.00115,0.00032,0.00468,0.0,57.75,0.132,0.0,13.155,-0.047,13.155,47.36,0.0
8.77,-0.1369,1.5382,9.9371,-0.00414,0.00524,0.00591,0.0,57.882,0.132,0.0,13.17,-0.047,13.17,47.41,0.0
8.78,0.0821,1.3475,10.1473,-0.00168,0.00564,0.00413,0.0,58.014,0.131,0.0,13.185,-0.047,13.185,47.47,0.0
8.79,-0.4265,1.4024,9.6447,-0.00711,-0.00699,-0.00409,0.0,58.146,0.131,0.0,13.2,-0.048,13.2,47.52,0.0
8.8,-0.219,1.2375,10.1807,-0.00391,0.00137,-0.00388,0.0,58.278,0.13,0.0,13.215,-0.048,13.215,47.57,0.0
8.81,0.359,1.2545,10.1271,-0.00582,0.00287,0.01079,0.0,58.41,0.13,0.0,13.23,-0.048,13.23,47.63,0.0
8.82,0.4347,1.4355,10.1529,-0.00618,0.00132,0.00766,0.0,58.543,0.13,0.0,13.245,-0.048,13.245,47.68,0.0
8.83,0.3348,1.4723,10.2262,0.00634,-0.00247,0.00391,0.0,58.676,0.129,0.0,13.26,-0.048,13.26,47.74,0.0
8.84,0.4807,1.5943,9.2807,0.00354,0.00157,0.00712,0.0,58.808,0.129,0.0,13.275,-0.048,13.275,47.79,0.0
8.85,-0.2926,1.3648,9.8954,-0.00374,0.00526,-0.00253,0.0,58.941,0.128,0.0,13.29,-0.048,13.29,47.84,0.0
8.86,-0.4125,1.6326,9.7303,-0.00122,-0.0028,0.00088,0.0,59.074,0.128,0.0,13.305,-0.048,13.305,47.9,0.0
8.87,-0.0726,1.6006,9.4262,-0.00102,0.00316,0.00653,0.0,59.207,0.127,0.0,13.32,-0.048,13.32,47.95,0.0
8.88,0.3083,1.4199,9.7729,0.00158,-0.00127,-0.00719,0.0,59.341,0.127,0.0,13.335,-0.048,13.335,48.01,0.0
8.89,-0.1447,1.1571,9.4088,0.00325,-0.00159,0.00723,0.0,59.474,0.126,0.0,13.35,-0.048,13.35,48.06,0.0
8.9,-0.3362,1.6295,9.6397,0.0007,-0.00142,0.01067,0.0,59.608,0.126,0.0,13.365,-0.048,13.365,48.11,0.0
8.91,0.3033,1.3958,9.9511,0.00426,-0.00355,2e-05,0.0,59.742,0.125,0.0,13.38,-0.048,13.38,48.17,0.0
8.92,0.2206,1.4739,10.1671,-0.00103,-0.00795,-0.00315,0.0,59.876,0.125,0.0,13.395,-0.048,13.395,48.22,0.0
8.93,-0.221,1.7873,10.1718,0.00103,0.0004,-0.00519,0.0,60.01,0.124,0.0,13.41,-0.048,13.41,48.28,0.0
8.94,0.2732,1.3666,9.503,-0.00407,0.00459,-7e-05,0.0,60.144,0.124,0.0,13.425,-0.049,13.425,48.33,0.0
8.95,0.5826,1.3347,9.3658,0.00707,-0.00059,-0.00033,0.0,60.278,0.123,0.0,13.44,-0.049,13.44,48.38,0.0
8.96,-0.3165,1.4927,9.2892,-0.00374,0.00315,0.00306,0.0,60.413,0.123,0.0,13.455,-0.049,13.455,48.44,0.0
8.97,0.4349,1.3158,9.4798,-0.01189,0.00366,0.00432,0.0,60.548,0.122,0.0,13.47,-0.049,13.47,48.49,0.0
8.98,-0.1032,1.7788,9.2964,5e-05,-0.0074,0.00447,0.0,60.683,0.122,0.0,13.485,-0.049,13.485,48.55,0.0
8.99,-0.2524,1.5439,9.9258,-0.00604,-0.00258,0.00742,0.0,60.818,0.121,0.0,13.5,-0.049,13.5,48.6,0.0
9.001,-0.3175,1.9979,10.0215,-0.00112,-0.00382,-0.00451,0.0,60.953,0.121,0.0,13.515,-0.049,13.515,48.65,0.0
9.011,-0.2139,1.3356,10.0511,0.00152,0.00297,-0.00477,0.0,61.088,0.12,0.0,13.53,-0.049,13.53,48.71,0.0
9.021,0.2242,1.6597,9.833,-0.00925,-0.00445,-0.00149,0.0,61.223,0.12,0.0,13.545,-0.049,13.545,48.76,0.0
9.031,0.2022,1.4556,9.2796,-0.00396,-0.00139,-0.00205,0.0,61.359,0.119,0.0,13.56,-0.049,13.56,48.82,0.0
9.041,0.1685,1.613,9.9077,0.00133,0.00086,-0.00687,0.0,61.495,0.119,0.0,13.575,-0.049,13.575,48.87,0.0
9.051,-0.7363,1.2286,9.5957,0.00478,0.00098,0.00432,0.0,61.631,0.118,0.0,13.59,-0.049,13.59,48.92,0.0
9.061,0.2467,1.8517,9.5832,0.01016,0.00319,-0.00672,0.0,61.767,0.118,0.0,13.605,-0.049,13.605,48.98,0.0
9.071,-0.3024,1.8021,9.8243,-0.00361,-0.01374,0.00148,0.0,61.903,0.117,0.0,13.62,-0.049,13.62,49.03,0.0
9.081,-0.0232,1.1591,9.5794,-0.00195,0.00039,0.00014,0.0,62.039,0.117,0.0,13.635,-0.049,13.635,49.09,0.0
9.091,0.0048,1.7441,10.2524,0.00402,0.00778,0.00152,0.0,62.176,0.116,0.0,13.65,-0.049,13.65,49.14,0.0
9.101,0.0394,1.3524,9.3755,-0.0007,-0.00621,-0.00086,0.0,62.312,0.116,0.0,13.665,-0.049,13.665,49.19,0.0
9.111,0.1348,1.6652,10.0259,0.01216,0.00465,0.0034,0.0,62.449,0.115,0.0,13.68,-0.049,13.68,49.25,0.0
9.121,0.0917,1.3508,9.7812,0.00324,-0.00305,0.00653,0.0,62.586,0.115,0.0,13.695,-0.049,13.695,49.3,0.0
9.131,0.0443,1.2193,9.8095,-0.00907,0.00241,0.00124,0.0,62.723,0.114,0.0,13.71,-0.049,13.71,49.36,0.0
9.141,-0.28,1.2391,10.0805,0.00238,0.00065,0.00364,0.0,62.861,0.114,0.0,13.725,-0.049,13.725,49.41,0.0
9.151,0.5504,1.8017,9.7443,-0.00185,-0.00103,0.00582,0.0,62.998,0.113,0.0,13.74,-0.05,13.74,49.46,0.0
9.161,-0.2544,0.9197,10.0182,-0.0012,0.00777,-0.00063,0.0,63.135,0.113,0.0,13.755,-0.05,13.755,49.52,0.0
9.171,-0.0874,1.2036,9.7231,0.00367,-0.00659,-0.00152,0.0,63.273,0.112,0.0,13.77,-0.05,13.77,49.57,0.0
9.181,-0.1484,1.5516,8.8456,0.00816,-0.00012,0.00663,0.0,63.411,0.112,0.0,13.785,-0.05,13.785,49.63,0.0
9.191,-0.2022,1.6989,9.4919,-0.00463,0.00542,-0.00925,0.0,63.549,0.111,0.0,13.8,-0.05,13.8,49.68,0.0
9.201,-0.1772,1.5515,9.8192,-0.00449,0.00305,0.00326,0.0,63.687,0.111,0.0,13.815,-0.05,13.815,49.73,0.0
9.211,0.0392,1.6187,9.586,-0.00533,-0.00418,0.00232,0.0,63.825,0.11,0.0,13.83,-0.05,13.83,49.79,0.0
9.221,0.0044,1.7056,9.3105,0.00246,-0.00387,-0.00357,0.0,63.964,0.11,0.0,13.845,-0.05,13.845,49.84,0.0
9.231,0.3843,1.5559,9.9633,-0.00182,0.00103,-0.00402,0.0,64.103,0.109,0.0,13.86,-0.05,13.86,49.9,0.0
9.241,-0.0458,1.5974,9.9008,0.0132,-0.00173,0.00345,0.0,64.241,0.109,0.0,13.875,-0.05,13.875,49.95,0.0
9.251,-0.3968,1.6323,9.618,-0.00013,0.00313,-0.00092,0.0,64.38,0.108,0.0,13.89,-0.05,13.89,50.0,0.0
9.261,0.0498,1.5275,9.9289,-0.00761,-0.00158,0.00411,0.0,64.519,0.108,0.0,13.905,-0.05,13.905,50.06,0.0
9.271,-0.1595,2.0489,9.4337,0.00404,0.0043,0.00849,0.0,64.658,0.107,0.0,13.92,-0.05,13.92,50.11,0.0
9.281,-0.1748,1.3665,10.1571,0.00012,-0.00697,-0.00345,0.0,64.798,0.107,0.0,13.935,-0.05,13.935,50.17,0.0
9.291,-0.0799,1.3384,9.906,-0.00656,-0.00474,-0.0009,0.0,64.937,0.106,0.0,13.95,-0.05,13.95,50.22,0.0
9.301,-0.1642,1.407,9.8092,-0.00092,0.00074,0.0035,0.0,65.077,0.106,0.0,13.965,-0.05,13.965,50.27,0.0
9.311,0.1057,1.4556,9.3796,0.00752,0.00234,0.00152,0.0,65.217,0.105,0.0,13.98,-0.05,13.98,50.33,0.0
9.321,0.4924,1.392,9.3894,0.00371,0.00202,-0.00093,0.0,65.357,0.105,0.0,13.995,-0.05,13.995,50.38,0.0
9.331,-0.0441,1.457,10.1123,0.0022,0.00197,-0.00093,0.0,65.497,0.104,0.0,14.01,-0.05,14.01,50.44,0.0
9.341,-0.0466,1.7365,9.3414,0.00248,-0.00386,0.00566,0.0,65.637,0.104,0.0,14.025,-0.05,14.025,50.49,0.0
9.351,-0.1425,1.4602,10.0923,0.00998,0.00899,0.00376,0.0,65.777,0.103,0.0,14.04,-0.05,14.04,50.54,0.0
9.361,0.3847,1.2104,10.0183,-0.00716,0.00326,-0.01375,0.0,65.918,0.103,0.0,14.055,-0.05,14.055,50.6,0.0
9.371,0.2452,1.4445,9.77,0.00543,0.00304,0.001,0.0,66.059,0.102,0.0,14.07,-0.05,14.07,50.65,0.0
9.381,0.2706,1.452,10.0103,0.0026,-0.00713,-0.00218,0.0,66.2,0.102,0.0,14.085,-0.05,14.085,50.71,0.0
9.391,-0.2362,1.4645,9.8233,0.004,0.00475,0.00029,0.0,66.341,0.101,0.0,14.1,-0.05,14.1,50.76,0.0
9.401,0.1315,2.0566,9.1609,0.00281,0.00471,-0.00672,0.0,66.482,0.101,0.0,14.115,-0.05,14.115,50.81,0.0
9.411,0.1127,1.6781,9.8948,0.00118,0.00351,-0.00299,0.0,66.623,0.1,0.0,14.13,-0.05,14.13,50.87,0.0
9.421,-0.0462,1.5813,10.3729,0.00526,0.00043,-0.01201,0.0,66.764,0.1,0.0,14.145,-0.05,14.145,50.92,0.0
9.431,-0.0637,1.3424,10.0363,0.00396,-0.00196,0.00068,0.0,66.906,0.099,0.0,14.16,-0.05,14.16,50.98,0.0
9.441,-0.0976,1.5104,9.5533,0.00284,0.00417,0.00058,0.0,67.048,0.099,0.0,14.175,-0.05,14.175,51.03,0.0
9.451,0.2189,1.6234,9.7657,0.00074,-0.0045,-0.00371,0.0,67.19,0.098,0.0,14.19,-0.05,14.19,51.08,0.0
9.461,-0.0659,1.3277,9.7724,-0.00016,0.00874,-0.00021,0.0,67.332,0.098,0.0,14.205,-0.05,14.205,51.14,0.0
9.471,0.0299,1.1408,9.8549,-0.00102,-0.00111,-0.00412,0.0,67.474,0.097,0.0,14.22,-0.05,14.22,51.19,0.0
9.481,-0.115,1.4393,9.6667,-0.00441,-6e-05,-0.00263,0.0,67.616,0.097,0.0,14.235,-0.05,14.235,51.25,0.0
9.491,-0.0742,1.6768,9.2371,0.0072,3e-05,-0.00602,0.0,67.759,0.096,0.0,14.25,-0.05,14.25,51.3,0.0
9.501,-0.5902,1.4618,9.8034,0.00429,-0.00835,0.01072,0.0,67.901,0.096,0.0,14.265,-0.05,14.265,51.35,0.0
9.511,-0.4642,1.5955,9.5711,0.00352,-0.00743,0.0069,0.0,68.044,0.095,0.0,14.28,-0.05,14.28,51.41,0.0
9.521,0.0924,1.6923,10.0857,0.00047,0.0018,-0.00015,0.0,68.187,0.095,0.0,14.295,-0.05,14.295,51.46,0.0
9.531,0.5122,1.547,9.824,-0.00152,0.00354,-0.0001,0.0,68.33,0.094,0.0,14.31,-0.05,14.31,51.52,0.0
9.541,0.1733,1.8678,9.0309,0.00158,-0.0031,-0.0057,0.0,68.474,0.094,0.0,14.325,-0.05,14.325,51.57,0.0
9.551,0.2258,1.5319,9.5414,-0.0029,0.00377,-0.00441,0.0,68.617,0.093,0.0,14.34,-0.05,14.34,51.62,0.0
9.561,-0.1191,0.8351,9.3942,0.00372,0.00062,-0.00939,0.0,68.76,0.093,0.0,14.355,-0.05,14.355,51.68,0.0
9.571,0.1618,1.4639,9.3568,-0.00416,0.00652,-0.0047,0.0,68.904,0.092,0.0,14.37,-0.05,14.37,51.73,0.0
9.581,0.2251,1.5207,9.7268,0.0013,-0.00166,0.00098,0.0,69.048,0.092,0.0,14.385,-0.05,14.385,51.79,0.0
9.591,-0.2171,1.1664,9.0211,-0.00047,0.00287,-0.00254,0.0,69.192,0.091,0.0,14.4,-0.05,14.4,51.84,0.0
9.601,-0.3098,1.5079,9.6572,-0.00327,-0.00061,0.006,0.0,69.336,0.091,0.0,14.415,-0.05,14.415,51.89,0.0
9.611,-0.0247,1.4258,9.1605,-0.00075,-0.00731,-0.00624,0.0,69.48,0.09,0.0,14.43,-0.05,14.43,51.95,0.0
9.621,0.1845,1.583,9.3696,0.00106,0.00402,-0.00705,0.0,69.625,0.09,0.0,14.445,-0.05,14.445,52.0,0.0
9.631,0.2373,1.4946,9.7476,0.00287,-0.00838,-0.00043,0.0,69.77,0.089,0.0,14.46,-0.05,14.46,52.06,0.0
9.641,-0.0319,1.3627,10.1907,0.00239,0.00237,-0.00823,0.0,69.914,0.089,0.0,14.475,-0.05,14.475,52.11,0.0
9.651,0.1281,1.2789,9.7633,0.00189,0.00313,-0.00314,0.0,70.059,0.088,0.0,14.49,-0.05,14.49,52.16,0.0
9.661,-0.0451,1.6506,9.8386,-0.00235,0.0029,0.00632,0.0,70.204,0.088,0.0,14.505,-0.05,14.505,52.22,0.0
9.671,-0.3531,1.4536,10.0645,0.01409,-0.00321,0.0004,0.0,70.349,0.087,0.0,14.52,-0.05,14.52,52.27,0.0
9.681,0.138,1.3154,9.5974,-0.00856,0.00857,0.00309,0.0,70.495,0.087,0.0,14.535,-0.05,14.535,52.33,0.0
9.691,0.5187,1.5993,10.069,0.00758,-0.00685,0.00077,0.0,70.64,0.086,0.0,14.55,-0.05,14.55,52.38,0.0
9.701,-0.1762,1.7973,10.4151,0.00475,0.00148,4e-05,0.0,70.786,0.086,0.0,14.565,-0.05,14.565,52.43,0.0
9.711,0.3589,1.496,9.8605,0.0035,-0.00423,-0.00477,0.0,70.932,0.086,0.0,14.58,-0.049,14.58,52.49,0.0
9.721,0.6313,1.3,9.8271,-0.00492,0.0001,0.00301,0.0,71.078,0.085,0.0,14.595,-0.049,14.595,52.54,0.0
9.731,0.2307,1.4728,10.6349,-0.00433,-0.00452,0.00507,0.0,71.224,0.085,0.0,14.61,-0.049,14.61,52.6,0.0
9.741,0.0934,1.3053,9.4504,-0.00397,0.00263,-0.00023,0.0,71.37,0.084,0.0,14.625,-0.049,14.625,52.65,0.0
9.751,-0.1157,1.4664,9.9982,0.00732,-0.0063,0.00044,0.0,71.516,0.084,0.0,14.64,-0.049,14.64,52.7,0.0
9.761,-0.2582,1.6441,9.6017,-0.0052,0.00597,0.00103,0.0,71.663,0.083,0.0,14.655,-0.049,14.655,52.76,0.0
9.771,-0.2626,0.9805,9.9681,-0.00464,0.00669,-0.00249,0.0,71.81,0.083,0.0,14.67,-0.049,14.67,52.81,0.0
9.781,-0.3515,1.7588,10.0976,-0.0049,0.00311,0.00761,0.0,71.957,0.082,0.0,14.685,-0.049,14.685,52.87,0.0
9.791,-0.0099,1.6619,10.2502,0.00084,0.0017,0.00641,0.0,72.104,0.082,0.0,14.7,-0.049,14.7,52.92,0.0
9.801,0.0837,1.7511,9.8406,-0.00222,-0.00056,0.00608,0.0,72.251,0.081,0.0,14.715,-0.049,14.715,52.97,0.0
9.811,0.086,1.1998,9.883,0.00103,0.00263,0.00115,0.0,72.398,0.081,0.0,14.73,-0.049,14.73,53.03,0.0
9.821,-0.1024,1.2918,9.7755,0.00537,0.00072,-0.00016,0.0,72.545,0.08,0.0,14.745,-0.049,14.745,53.08,0.0
9.831,-0.1904,1.7071,9.49,-0.00256,0.0084,-0.00855,0.0,72.693,0.08,0.0,14.76,-0.049,14.76,53.14,0.0
9.841,0.0469,1.2605,9.8359,-0.00523,-0.00765,0.0053,0.0,72.841,0.079,0.0,14.775,-0.049,14.775,53.19,0.0
9.851,-0.1415,1.4501,10.1577,0.00436,0.00269,-0.0104,0.0,72.989,0.079,0.0,14.79,-0.049,14.79,53.24,0.0
9.861,-0.2995,1.4543,9.6085,-0.01116,0.0049,0.00309,0.0,73.137,0.078,0.0,14.805,-0.049,14.805,53.3,0.0
9.871,-0.1373,1.4398,9.8813,0.00899,-0.00117,0.00449,0.0,73.285,0.078,0.0,14.82,-0.049,14.82,53.35,0.0
9.881,0.2753,1.3206,10.1991,0.00119,0.01059,-0.00154,0.0,73.433,0.077,0.0,14.835,-0.049,14.835,53.41,0.0
9.891,-0.1704,1.5595,9.5493,-0.00316,-0.00192,-0.0023,0.0,73.582,0.077,0.0,14.85,-0.049,14.85,53.46,0.0
9.901,-0.0267,1.4378,9.7199,0.00574,0.00197,0.00127,0.0,73.73,0.076,0.0,14.865,-0.049,14.865,53.51,0.0
9.911,0.0123,1.388,9.3934,-0.00208,-0.00546,-0.0015,0.0,73.879,0.076,0.0,14.88,-0.049,14.88,53.57,0.0
9.921,0.1662,1.5531,9.9284,0.00011,0.00132,-0.00271,0.0,74.028,0.075,0.0,14.895,-0.048,14.895,53.62,0.0
9.931,0.3486,1.4954,10.642,0.0107,0.00256,-0.00771,0.0,74.177,0.075,0.0,14.91,-0.048,14.91,53.68,0.0
9.941,0.0198,1.5229,10.1277,0.0017,0.00085,0.00205,0.0,74.327,0.074,0.0,14.925,-0.048,14.925,53.73,0.0
9.951,-0.2221,1.4955,10.2363,0.00096,0.00358,0.00211,0.0,74.476,0.074,0.0,14.94,-0.048,14.94,53.78,0.0
9.961,-0.1564,1.8628,9.4702,-0.00769,-0.00798,0.00229,0.0,74.625,0.073,0.0,14.955,-0.048,14.955,53.84,0.0
9.971,0.1545,1.7012,10.1438,0.00299,0.00407,0.00271,0.0,74.775,0.073,0.0,14.97,-0.048,14.97,53.89,0.0
9.981,-0.0379,1.7092,10.2364,0.00849,0.00623,0.01453,0.0,74.925,0.072,0.0,14.985,-0.048,14.985,53.95,0.0
9.991,-0.7091,1.8792,9.7951,-0.00639,0.00399,0.00114,0.0,75.075,0.072,0.0,15.0,-0.048,15.0,54.0,0.0
10.001,0.2318,-0.159,10.0248,0.01004,0.00283,0.00582,0.0,75.225,0.071,0.0,15.0,-0.048,15.0,54.0,0.0
10.011,-0.1132,-0.053,9.5217,0.00599,0.00474,0.00283,0.0,75.375,0.071,0.0,15.0,-0.048,15.0,54.0,0.0
10.021,0.3878,-0.145,9.5286,-0.00929,-0.00479,0.00368,0.0,75.525,0.07,0.0,15.0,-0.048,15.0,54.0,0.0
10.031,0.0707,-0.0471,9.7308,0.00436,0.00168,0.00937,0.0,75.675,0.07,0.0,15.0,-0.048,15.0,54.0,0.0
10.041,0.214,0.1611,9.9229,-0.00436,0.00921,-0.00565,0.0,75.825,0.069,0.0,15.0,-0.048,15.0,54.0,0.0
10.051,-0.0235,-0.3175,9.6005,0.00653,7e-05,0.00386,0.0,75.975,0.069,0.0,15.0,-0.048,15.0,54.0,0.0
10.061,0.1196,0.1791,9.8543,-0.00113,0.00373,0.00375,0.0,76.125,0.069,0.0,15.0,-0.047,15.0,54.0,0.0
10.071,-0.2119,-0.0834,9.0292,-0.0082,-0.00162,0.00277,0.0,76.275,0.068,0.0,15.0,-0.047,15.0,54.0,0.0
10.081,-0.041,0.0235,10.3679,0.00042,0.0114,-0.00054,0.0,76.425,0.068,0.0,15.0,-0.047,15.0,54.0,0.0
10.091,-0.0974,0.2497,9.6079,-0.00623,0.0044,-0.00045,0.0,76.575,0.067,0.0,15.0,-0.047,15.0,54.0,0.0
10.101,-0.1342,-0.0085,10.0578,-0.00063,0.00281,0.00109,0.0,76.725,0.067,0.0,15.0,-0.047,15.0,54.0,0.0
10.111,-0.3596,0.0677,9.7541,0.00083,-0.00502,0.00523,0.0,76.875,0.066,0.0,15.0,-0.047,15.0,54.0,0.0
10.121,0.2334,0.1636,9.7455,-0.00343,-0.00081,-0.00028,0.0,77.025,0.066,0.0,15.0,-0.047,15.0,54.0,0.0
10.131,0.0048,0.2689,9.9892,-0.00994,-0.00161,-0.00111,0.0,77.175,0.065,0.0,15.0,-0.047,15.0,54.0,0.0
10.141,-0.5497,0.1746,9.748,0.00968,0.01505,-0.00431,0.0,77.325,0.065,0.0,15.0,-0.047,15.0,54.0,0.0
10.151,0.2646,0.0008,9.7401,0.00537,-0.00222,0.00367,0.0,77.475,0.064,0.0,15.0,-0.047,15.0,54.0,0.0
10.161,-0.5149,-0.3341,9.853,0.00508,-0.00387,-0.00052,0.0,77.625,0.064,0.0,15.0,-0.047,15.0,54.0,0.0
10.171,0.1624,-0.1447,9.8096,-0.00209,-0.00421,-0.00061,0.0,77.775,0.063,0.0,15.0,-0.047,15.0,54.0,0.0
10.181,0.1604,-0.3392,10.1913,0.00289,-0.00273,-0.00642,0.0,77.925,0.063,0.0,15.0,-0.046,15.0,54.0,0.0
10.191,0.3555,0.3647,9.8213,-0.00102,0.00455,0.00433,0.0,78.075,0.062,0.0,15.0,-0.046,15.0,54.0,0.0
10.201,-0.454,-0.2018,9.3657,-0.00453,-0.00024,0.0049,0.0,78.225,0.062,0.0,15.0,-0.046,15.0,54.0,0.0
10.211,-0.5684,-0.1338,9.8227,-0.00081,0.00161,-0.00079,0.0,78.375,0.061,0.0,15.0,-0.046,15.0,54.0,0.0
10.221,-0.2867,-0.0523,9.7479,-0.00328,0.00537,0.00789,0.0,78.525,0.061,0.0,15.0,-0.046,15.0,54.0,0.0
10.231,0.1417,-0.113,10.2411,-0.00505,-0.00065,-0.00532,0.0,78.675,0.061,0.0,15.0,-0.046,15.0,54.0,0.0
10.241,0.1188,-0.0084,9.9126,-0.0008,-0.00156,-0.00414,0.0,78.825,0.06,0.0,15.0,-0.046,15.0,54.0,0.0
10.251,-0.1712,-0.2291,10.5226,0.00275,0.00049,-0.00255,0.0,78.975,0.06,0.0,15.0,-0.046,15.0,54.0,0.0
10.261,0.5638,-0.3314,10.2691,0.0024,-0.01201,-0.00227,0.0,79.125,0.059,0.0,15.0,-0.046,15.0,54.0,0.0
10.271,-0.3491,-0.3566,9.8286,-0.00369,0.00386,0.00221,0.0,79.275,0.059,0.0,15.0,-0.046,15.0,54.0,0.0
10.281,0.0244,-0.2019,9.4359,0.00207,0.00504,-0.00028,0.0,79.425,0.058,0.0,15.0,-0.045,15.0,54.0,0.0
10.291,-0.1705,-0.4379,9.0345,-0.00324,-0.00506,0.00042,0.0,79.575,0.058,0.0,15.0,-0.045,15.0,54.0,0.0
10.301,-0.4729,0.4383,9.2713,2e-05,0.00378,-0.00496,0.0,79.725,0.057,0.0,15.0,-0.045,15.0,54.0,0.0
10.311,0.0369,-0.4568,9.9799,0.00258,-0.00284,-0.00651,0.0,79.875,0.057,0.0,15.0,-0.045,15.0,54.0,0.0
10.321,-0.3535,0.3645,9.6284,0.00854,0.01172,-0.00872,0.0,80.025,0.056,0.0,15.0,-0.045,15.0,54.0,0.0
10.331,-0.5063,-0.0223,9.7337,-0.00155,-0.0036,0.00474,0.0,80.175,0.056,0.0,15.0,-0.045,15.0,54.0,0.0
10.341,-0.2632,0.1359,9.6299,0.00827,0.00562,-0.00984,0.0,80.325,0.056,0.0,15.0,-0.045,15.0,54.0,0.0
10.351,0.6519,-0.1062,10.2139,-0.00904,0.00656,-0.00584,0.0,80.475,0.055,0.0,15.0,-0.045,15.0,54.0,0.0
10.361,-0.4357,0.3148,10.0656,-0.00205,0.00311,-0.00764,0.0,80.625,0.055,0.0,15.0,-0.045,15.0,54.0,0.0
10.371,-0.2647,0.1909,9.2634,-0.00089,0.00562,-0.00122,0.0,80.775,0.054,0.0,15.0,-0.045,15.0,54.0,0.0
10.381,-0.3989,-0.0918,9.5959,-0.00057,0.00411,0.0057,0.0,80.925,0.054,0.0,15.0,-0.044,15.0,54.0,0.0
10.391,0.0008,-0.3084,9.6764,0.00741,-0.00977,0.005,0.0,81.075,0.053,0.0,15.0,-0.044,15.0,54.0,0.0
10.401,0.6001,-0.0357,9.9182,0.00073,-0.00029,-0.00385,0.0,81.225,0.053,0.0,15.0,-0.044,15.0,54.0,0.0
10.411,-0.1739,0.1671,10.3947,-0.0042,0.00354,0.0019,0.0,81.375,0.052,0.0,15.0,-0.044,15.0,54.0,0.0
10.421,-0.1379,-0.2958,9.7933,-0.00121,0.00307,-0.00033,0.0,81.525,0.052,0.0,15.0,-0.044,15.0,54.0,0.0
10.431,-0.1955,-0.0002,10.2169,0.00045,0.00115,0.00307,0.0,81.675,0.052,0.0,15.0,-0.044,15.0,54.0,0.0
10.441,0.1063,0.3839,10.7445,0.00157,-0.00644,0.00155,0.0,81.825,0.051,0.0,15.0,-0.044,15.0,54.0,0.0
10.451,0.1853,-0.0416,9.3391,0.00422,-0.00198,0.00128,0.0,81.975,0.051,0.0,15.0,-0.044,15.0,54.0,0.0
10.461,-0.2987,-0.0978,10.0071,-0.0057,0.00347,0.00361,0.0,82.125,0.05,0.0,15.0,-0.043,15.0,54.0,0.0
10.471,-0.2482,-0.2776,9.9997,-0.00197,-0.00795,0.00191,0.0,82.275,0.05,0.0,15.0,-0.043,15.0,54.0,0.0
10.481,-0.2466,-0.127,9.7814,-0.01218,0.00364,0.00199,0.0,82.425,0.049,0.0,15.0,-0.043,15.0,54.0,0.0
10.491,-0.1195,-0.0638,9.4713,-0.00882,0.0115,-0.00314,0.0,82.575,0.049,0.0,15.0,-0.043,15.0,54.0,0.0
10.501,-0.059,0.0506,9.8402,-2e-05,-0.00383,0.00201,0.0,82.725,0.049,0.0,15.0,-0.043,15.0,54.0,0.0
10.511,0.4544,0.2205,9.9934,-0.00121,0.00186,-0.00487,0.0,82.875,0.048,0.0,15.0,-0.043,15.0,54.0,0.0
10.521,-0.4567,0.0938,10.1054,0.00604,0.00495,-0.00318,0.0,83.025,0.048,0.0,15.0,-0.043,15.0,54.0,0.0
10.531,-0.149,-0.2122,10.0214,-0.00517,0.00613,0.00052,0.0,83.175,0.047,0.0,15.0,-0.043,15.0,54.0,0.0
10.541,-0.1631,-0.1405,9.8274,0.00342,0.0038,0.00279,0.0,83.325,0.047,0.0,15.0,-0.042,15.0,54.0,0.0
10.551,0.3853,-0.0268,9.3459,-0.00315,0.00203,0.00534,0.0,83.475,0.046,0.0,15.0,-0.042,15.0,54.0,0.0
10.561,0.094,-0.1339,9.4705,0.00089,-0.00205,0.00049,0.0,83.625,0.046,0.0,15.0,-0.042,15.0,54.0,0.0
10.571,-0.0548,-0.2452,9.7297,-0.00716,-0.00266,0.00386,0.0,83.775,0.046,0.0,15.0,-0.042,15.0,54.0,0.0
10.581,-0.2165,0.1264,10.4383,-0.00055,0.00098,-0.00816,0.0,83.925,0.045,0.0,15.0,-0.042,15.0,54.0,0.0
10.591,0.0207,0.4072,9.8466,0.00511,0.00103,-0.00357,0.0,84.075,0.045,0.0,15.0,-0.042,15.0,54.0,0.0
10.601,-0.2664,0.1828,9.817,-0.00119,-0.0039,0.00473,0.0,84.225,0.044,0.0,15.0,-0.042,15.0,54.0,0.0
10.611,-0.2095,-0.0266,9.8927,0.00675,0.00427,-0.00191,0.0,84.375,0.044,0.0,15.0,-0.041,15.0,54.0,0.0
10.621,-0.0244,-0.033,9.7601,-0.00611,0.00221,-0.00269,0.0,84.525,0.043,0.0,15.0,-0.041,15.0,54.0,0.0
10.631,-0.1811,0.1891,9.1093,-0.00618,-0.00447,-0.00104,0.0,84.675,0.043,0.0,15.0,-0.041,15.0,54.0,0.0
10.641,0.2915,-0.0234,10.0656,0.00913,0.00635,0.00527,0.0,84.825,0.043,0.0,15.0,-0.041,15.0,54.0,0.0
10.651,0.0219,-0.0035,9.8884,-0.0007,0.00212,0.00491,0.0,84.975,0.042,0.0,15.0,-0.041,15.0,54.0,0.0
10.661,-0.1494,-0.0006,9.998,7e-05,-0.00531,0.00155,0.0,85.125,0.042,0.0,15.0,-0.041,15.0,54.0,0.0
10.671,0.2498,0.0949,10.7222,0.00231,0.00989,0.00803,0.0,85.275,0.041,0.0,15.0,-0.041,15.0,54.0,0.0
10.681,-0.2685,-0.1543,9.6728,-0.00084,0.00648,-0.00806,0.0,85.425,0.041,0.0,15.0,-0.04,15.0,54.0,0.0
10.691,0.3205,0.0048,9.5107,0.00381,0.00248,0.00699,0.0,85.575,0.041,0.0,15.0,-0.04,15.0,54.0,0.0
10.701,-0.1212,-0.0913,9.5696,-0.00138,0.00173,0.00222,0.0,85.725,0.04,0.0,15.0,-0.04,15.0,54.0,0.0
10.711,-0.0287,0.0764,9.4695,0.0035,-0.00029,0.00661,0.0,85.875,0.04,0.0,15.0,-0.04,15.0,54.0,0.0
10.721,-0.2031,0.3047,9.7623,-8e-05,0.00929,0.00935,0.0,86.025,0.039,0.0,15.0,-0.04,15.0,54.0,0.0
10.731,-0.2698,0.4243,9.7963,0.00286,0.00569,0.00205,0.0,86.175,0.039,0.0,15.0,-0.04,15.0,54.0,0.0
10.741,-0.3881,-0.2399,10.1205,-5e-05,0.0056,0.00615,0.0,86.325,0.039,0.0,15.0,-0.04,15.0,54.0,0.0
10.751,-0.4206,-0.2382,9.9934,-0.00196,-0.00515,-0.00441,0.0,86.475,0.038,0.0,15.0,-0.039,15.0,54.0,0.0
10.761,0.2039,-0.2248,9.9896,-0.00101,0.00569,-0.00349,0.0,86.625,0.038,0.0,15.0,-0.039,15.0,54.0,0.0
10.771,-0.0778,-0.1563,9.6531,0.00079,-0.00124,0.00142,0.0,86.775,0.037,0.0,15.0,-0.039,15.0,54.0,0.0
10.781,-0.653,-0.1768,9.4992,-0.00575,-0.00602,-0.0056,0.0,86.925,0.037,0.0,15.0,-0.039,15.0,54.0,0.0
10.791,0.1821,-0.4248,9.9486,0.00057,-0.00464,-4e-05,0.0,87.075,0.037,0.0,15.0,-0.039,15.0,54.0,0.0
10.801,0.0781,-0.2695,9.8539,-0.00417,-0.00398,-0.00648,0.0,87.225,0.036,0.0,15.0,-0.039,15.0,54.0,0.0
10.811,0.1978,-0.2846,9.9618,0.006,0.00911,-0.00039,0.0,87.375,0.036,0.0,15.0,-0.038,15.0,54.0,0.0
10.821,-0.3201,0.3373,9.3731,0.01624,-0.00732,-0.00734,0.0,87.525,0.036,0.0,15.0,-0.038,15.0,54.0,0.0
10.831,0.3672,0.2203,9.4524,0.00576,0.00045,0.00499,0.0,87.675,0.035,0.0,15.0,-0.038,15.0,54.0,0.0
10.841,0.1007,-0.0349,10.4007,-0.00115,0.00628,6e-05,0.0,87.825,0.035,0.0,15.0,-0.038,15.0,54.0,0.0
10.851,-0.0837,-0.2302,10.0883,0.00096,0.00905,-0.00389,0.0,87.975,0.034,0.0,15.0,-0.038,15.0,54.0,0.0
10.861,0.2335,0.1274,9.8223,-0.00064,0.00382,-0.00348,0.0,88.125,0.034,0.0,15.0,-0.038,15.0,54.0,0.0
10.871,0.1558,-0.3694,9.5136,-0.00051,0.00696,0.00971,0.0,88.275,0.034,0.0,15.0,-0.037,15.0,54.0,0.0
10.881,0.3499,0.1399,9.9407,-0.00407,-0.00116,-0.00864,0.0,88.425,0.033,0.0,15.0,-0.037,15.0,54.0,0.0
10.891,0.4144,0.2549,9.7631,-0.00017,-0.00464,0.00562,0.0,88.575,0.033,0.0,15.0,-0.037,15.0,54.0,0.0
10.901,-0.0743,-0.1691,9.4535,0.00077,0.00526,0.00155,0.0,88.725,0.033,0.0,15.0,-0.037,15.0,54.0,0.0
10.911,0.2719,-0.125,9.8411,0.00102,0.00071,-0.00541,0.0,88.875,0.032,0.0,15.0,-0.037,15.0,54.0,0.0
10.921,-0.1998,0.1868,9.0881,-0.00272,0.00788,-0.00131,0.0,89.025,0.032,0.0,15.0,-0.037,15.0,54.0,0.0
10.931,0.4777,-0.207,9.5622,-0.00666,-0.00144,-0.00058,0.0,89.175,0.031,0.0,15.0,-0.036,15.0,54.0,0.0
10.941,-0.3182,0.0702,9.9872,-0.001,-0.0023,0.00051,0.0,89.325,0.031,0.0,15.0,-0.036,15.0,54.0,0.0
10.951,-0.2712,-0.5084,10.0384,-0.00183,-0.00242,-0.00399,0.0,89.475,0.031,0.0,15.0,-0.036,15.0,54.0,0.0
10.961,-0.2735,0.0612,9.5565,-0.0008,0.00257,-0.00376,0.0,89.625,0.03,0.0,15.0,-0.036,15.0,54.0,0.0
10.971,-0.0468,0.1238,9.42,-0.00015,-0.00179,0.00446,0.0,89.775,0.03,0.0,15.0,-0.036,15.0,54.0,0.0
10.981,0.1218,-0.0058,9.5403,0.00184,0.00642,0.00046,0.0,89.925,0.03,0.0,15.0,-0.036,15.0,54.0,0.0
10.991,-0.1925,-0.1329,10.0158,0.00161,-0.00499,0.00898,0.0,90.075,0.029,0.0,15.0,-0.035,15.0,54.0,0.0
11.001,-0.5431,-0.1216,9.3364,-0.00044,-0.00972,-0.00758,0.0,90.225,0.029,0.0,15.0,-0.035,15.0,54.0,0.0
11.011,0.1021,-0.2644,10.0889,0.00185,-0.00101,0.00063,0.0,90.375,0.029,0.0,15.0,-0.035,15.0,54.0,0.0
11.021,-0.0566,0.3332,9.6473,0.00662,0.00122,-0.00107,0.0,90.525,0.028,0.0,15.0,-0.035,15.0,54.0,0.0
11.031,-0.368,-0.1552,9.1318,-0.00406,0.00153,0.00132,0.0,90.675,0.028,0.0,15.0,-0.035,15.0,54.0,0.0
11.041,0.2913,-0.2976,9.8678,-0.0042,-0.0029,0.00366,0.0,90.825,0.028,0.0,15.0,-0.035,15.0,54.0,0.0
11.051,0.2163,0.0314,9.1736,-0.003,0.00391,0.00153,0.0,90.975,0.027,0.0,15.0,-0.034,15.0,54.0,0.0
11.061,0.2937,0.2061,9.8566,0.00723,0.00498,0.00249,0.0,91.125,0.027,0.0,15.0,-0.034,15.0,54.0,0.0
11.071,-0.1875,0.2658,9.8214,-0.00056,-0.00439,0.00141,0.0,91.275,0.027,0.0,15.0,-0.034,15.0,54.0,0.0
11.081,0.0408,-0.0276,9.4523,-0.00166,0.00369,0.00931,0.0,91.425,0.026,0.0,15.0,-0.034,15.0,54.0,0.0
11.091,0.3077,0.0316,9.5148,0.0098,-0.00181,0.00258,0.0,91.575,0.026,0.0,15.0,-0.034,15.0,54.0,0.0
11.101,0.1585,0.1103,10.3177,-0.00127,0.00247,-0.00132,0.0,91.725,0.026,0.0,15.0,-0.033,15.0,54.0,0.0
11.111,-0.2454,-0.0972,9.9122,-0.00159,0.00408,-0.00562,0.0,91.875,0.025,0.0,15.0,-0.033,15.0,54.0,0.0
11.121,-0.2662,0.5614,10.4207,-0.00318,0.00198,-0.00026,0.0,92.025,0.025,0.0,15.0,-0.033,15.0,54.0,0.0
11.131,0.143,0.2688,9.7851,-0.0014,-0.001,0.01627,0.0,92.175,0.025,0.0,15.0,-0.033,15.0,54.0,0.0
11.141,0.1472,0.0594,9.8508,-0.0026,-0.00452,0.00323,0.0,92.325,0.024,0.0,15.0,-0.033,15.0,54.0,0.0
11.151,-0.0832,0.0274,10.3343,-0.00252,-0.00935,0.00544,0.0,92.475,0.024,0.0,15.0,-0.033,15.0,54.0,0.0
11.161,-0.0192,-0.2205,9.7125,0.00144,-0.00446,-0.00065,0.0,92.625,0.024,0.0,15.0,-0.032,15.0,54.0,0.0
11.171,-0.1114,-0.1522,10.2728,-0.00152,0.0043,0.00213,0.0,92.775,0.023,0.0,15.0,-0.032,15.0,54.0,0.0
11.181,-0.2074,0.1211,10.0503,0.00051,-0.00645,-0.00035,0.0,92.925,0.023,0.0,15.0,-0.032,15.0,54.0,0.0
11.191,0.124,0.1694,9.3415,0.00048,-0.00052,0.00305,0.0,93.075,0.023,0.0,15.0,-0.032,15.0,54.0,0.0
11.201,0.0965,-0.2937,10.2588,0.00244,-0.00251,0.0051,0.0,93.225,0.022,0.0,15.0,-0.032,15.0,54.0,0.0
11.211,0.2124,0.2463,9.6858,-0.00662,0.00899,0.00421,0.0,93.375,0.022,0.0,15.0,-0.031,15.0,54.0,0.0
11.221,0.4439,-0.3343,10.2667,0.007,0.00358,-0.00818,0.0,93.525,0.022,0.0,15.0,-0.031,15.0,54.0,0.0
11.231,0.175,-0.0369,10.1788,-0.00191,0.00883,-0.00657,0.0,93.675,0.021,0.0,15.0,-0.031,15.0,54.0,0.0
11.241,-0.1016,-0.1707,10.3735,0.00326,-0.00716,-0.00655,0.0,93.825,0.021,0.0,15.0,-0.031,15.0,54.0,0.0
11.251,-0.0849,0.171,9.857,-0.00268,0.00669,-0.00091,0.0,93.975,0.021,0.0,15.0,-0.031,15.0,54.0,0.0
11.261,0.0052,0.4303,10.1383,0.00435,-0.00467,0.00596,0.0,94.125,0.02,0.0,15.0,-0.03,15.0,54.0,0.0
11.271,-0.2142,0.2542,10.1598,0.00361,-0.00651,-0.003,0.0,94.275,0.02,0.0,15.0,-0.03,15.0,54.0,0.0
11.281,-0.1769,0.1063,9.8398,-0.00832,-0.00945,0.00519,0.0,94.425,0.02,0.0,15.0,-0.03,15.0,54.0,0.0
11.291,0.0462,0.2718,8.9527,0.01189,0.00979,-0.00778,0.0,94.575,0.02,0.0,15.0,-0.03,15.0,54.0,0.0
11.301,0.55,0.03,9.7643,-0.00704,-0.00046,0.0017,0.0,94.725,0.019,0.0,15.0,-0.03,15.0,54.0,0.0
11.311,-0.0086,0.1035,9.7363,-0.00105,0.00512,-0.00568,0.0,94.875,0.019,0.0,15.0,-0.029,15.0,54.0,0.0
11.321,-0.2072,-0.0027,10.1181,0.0015,-0.00339,0.00425,0.0,95.025,0.019,0.0,15.0,-0.029,15.0,54.0,0.0
11.331,-0.2067,0.2675,9.4512,0.00059,-0.00338,-0.00036,0.0,95.175,0.018,0.0,15.0,-0.029,15.0,54.0,0.0
11.341,0.0268,-0.2255,10.0676,0.00229,-0.00085,0.00112,0.0,95.325,0.018,0.0,15.0,-0.029,15.0,54.0,0.0
11.351,-0.1764,-0.2665,9.5666,0.00178,-0.00746,-0.00543,0.0,95.475,0.018,0.0,15.0,-0.029,15.0,54.0,0.0
11.361,0.154,0.0933,9.7517,-0.00013,0.00182,-0.00601,0.0,95.625,0.017,0.0,15.0,-0.028,15.0,54.0,0.0
11.371,-0.1801,0.1619,9.8272,0.00036,-0.01004,-0.00458,0.0,95.775,0.017,0.0,15.0,-0.028,15.0,54.0,0.0
11.381,-0.1266,-0.1127,9.7825,0.0011,0.0002,-0.00398,0.0,95.925,0.017,0.0,15.0,-0.028,15.0,54.0,0.0
11.391,0.2242,0.0324,9.8178,-0.00578,0.00892,-0.00047,0.0,96.075,0.017,0.0,15.0,-0.028,15.0,54.0,0.0
11.401,-0.1353,0.0707,9.6461,0.00965,0.00256,-0.00801,0.0,96.225,0.016,0.0,15.0,-0.028,15.0,54.0,0.0
11.411,0.0248,0.591,10.1048,-0.00175,0.00807,-0.00941,0.0,96.375,0.016,0.0,15.0,-0.027,15.0,54.0,0.0
11.421,-0.4107,-0.3572,10.1143,-0.00498,0.00448,-0.00518,0.0,96.525,0.016,0.0,15.0,-0.027,15.0,54.0,0.0
11.431,0.3554,-0.3447,9.9146,0.01044,0.00823,0.00861,0.0,96.675,0.016,0.0,15.0,-0.027,15.0,54.0,0.0
11.441,0.0347,-0.0052,10.1183,0.00459,-0.01205,-0.01046,0.0,96.825,0.015,0.0,15.0,-0.027,15.0,54.0,0.0
11.451,0.047,0.2566,9.8546,-0.00467,-0.00437,0.00787,0.0,96.975,0.015,0.0,15.0,-0.026,15.0,54.0,0.0
11.461,0.1541,-0.1357,9.6968,0.00073,-0.00404,0.00408,0.0,97.125,0.015,0.0,15.0,-0.026,15.0,54.0,0.0
11.471,-0.1724,0.0028,9.8642,0.00405,-0.0029,-0.00234,0.0,97.275,0.015,0.0,15.0,-0.026,15.0,54.0,0.0
11.481,-0.0004,-0.2396,9.1889,-0.00032,-0.00133,-0.00261,0.0,97.425,0.014,0.0,15.0,-0.026,15.0,54.0,0.0
11.491,0.2561,-0.0685,9.8699,-0.00391,0.0032,0.0031,0.0,97.575,0.014,0.0,15.0,-0.026,15.0,54.0,0.0
11.501,-0.2514,-0.1373,9.8514,0.00086,0.00878,-0.00438,0.0,97.725,0.014,0.0,15.0,-0.025,15.0,54.0,0.0
11.511,0.4372,-0.5851,9.5577,-0.00273,-0.00333,-0.00573,0.0,97.875,0.013,0.0,15.0,-0.025,15.0,54.0,0.0
11.521,0.0541,-0.0034,10.1493,-0.0042,0.00884,-0.00152,0.0,98.025,0.013,0.0,15.0,-0.025,15.0,54.0,0.0
11.531,-0.0867,-0.0978,9.6775,-0.00523,0.00239,-0.003,0.0,98.175,0.013,0.0,15.0,-0.025,15.0,54.0,0.0
11.541,-0.6004,0.2775,10.1498,-0.00313,-0.00365,-0.00306,0.0,98.325,0.013,0.0,15.0,-0.025,15.0,54.0,0.0
11.551,0.1426,-0.5287,9.436,0.00241,0.0119,0.00017,0.0,98.475,0.012,0.0,15.0,-0.024,15.0,54.0,0.0
11.561,0.1389,-0.1572,9.8007,0.00541,0.00889,0.00104,0.0,98.625,0.012,0.0,15.0,-0.024,15.0,54.0,0.0
11.571,0.0444,-0.1311,9.7699,-0.0013,0.00516,0.00013,0.0,98.775,0.012,0.0,15.0,-0.024,15.0,54.0,0.0
11.581,-0.1264,0.1329,10.0504,0.0006,-0.00669,-0.00581,0.0,98.925,0.012,0.0,15.0,-0.024,15.0,54.0,0.0
11.591,0.249,-0.3542,10.2697,0.00604,0.00206,0.00465,0.0,99.075,0.012,0.0,15.0,-0.023,15.0,54.0,0.0
11.601,0.0891,-0.3299,10.0821,-0.00654,0.00197,0.00356,0.0,99.225,0.011,0.0,15.0,-0.023,15.0,54.0,0.0
11.611,-0.2029,0.2004,9.6344,0.00899,-0.00375,0.00464,0.0,99.375,0.011,0.0,15.0,-0.023,15.0,54.0,0.0
11.621,-0.0262,-0.059,9.1019,-0.00383,-0.00171,-0.00057,0.0,99.525,0.011,0.0,15.0,-0.023,15.0,54.0,0.0
11.631,-0.0023,-0.1926,9.9682,0.00322,-0.00289,-0.00378,0.0,99.675,0.011,0.0,15.0,-0.023,15.0,54.0,0.0
11.641,-0.1119,0.0535,9.2518,-0.00592,-0.00246,0.0015,0.0,99.825,0.01,0.0,15.0,-0.022,15.0,54.0,0.0
11.651,0.2403,-0.0509,9.7782,0.00819,-0.00557,-0.00356,0.0,99.975,0.01,0.0,15.0,-0.022,15.0,54.0,0.0
11.661,0.2571,-0.0852,9.4328,-0.00254,-0.00225,-0.01133,0.0,100.125,0.01,0.0,15.0,-0.022,15.0,54.0,0.0
11.671,-0.5079,-0.0809,9.4637,-0.00108,0.00061,-0.00227,0.0,100.275,0.01,0.0,15.0,-0.022,15.0,54.0,0.0
11.681,0.1311,-0.0703,9.9398,0.00567,-0.00244,0.00594,0.0,100.425,0.01,0.0,15.0,-0.021,15.0,54.0,0.0
11.691,0.3381,-0.0562,9.7052,-0.00348,0.00609,0.00349,0.0,100.575,0.009,0.0,15.0,-0.021,15.0,54.0,0.0
11.701,-0.431,-0.1237,10.0187,-0.00688,-0.0052,-0.00681,0.0,100.725,0.009,0.0,15.0,-0.021,15.0,54.0,0.0
11.711,-0.2599,-0.0815,9.9364,0.00577,0.00444,-0.00203,0.0,100.875,0.009,0.0,15.0,-0.021,15.0,54.0,0.0
11.721,0.0303,0.0614,9.8661,0.0023,-0.00156,-0.00885,0.0,101.025,0.009,0.0,15.0,-0.021,15.0,54.0,0.0
11.731,0.4511,-0.16,9.917,0.00703,-0.00141,-0.00443,0.0,101.175,0.009,0.0,15.0,-0.02,15.0,54.0,0.0
11.741,0.0156,-0.1972,10.0694,0.00016,0.00094,0.00028,0.0,101.325,0.008,0.0,15.0,-0.02,15.0,54.0,0.0
11.751,0.397,0.1355,9.6116,0.00533,0.00164,0.00775,0.0,101.475,0.008,0.0,15.0,-0.02,15.0,54.0,0.0
11.761,0.5385,0.1735,10.0793,0.0044,-0.00339,-0.00189,0.0,101.625,0.008,0.0,15.0,-0.02,15.0,54.0,0.0
11.771,-0.3411,0.403,9.7364,0.00034,-0.00555,0.00499,0.0,101.775,0.008,0.0,15.0,-0.019,15.0,54.0,0.0
11.781,0.0375,0.3024,10.0656,0.00081,-0.00268,-2e-05,0.0,101.925,0.008,0.0,15.0,-0.019,15.0,54.0,0.0
11.791,-0.0816,0.1305,9.7029,0.00693,0.0062,0.00532,0.0,102.075,0.007,0.0,15.0,-0.019,15.0,54.0,0.0
11.801,-0.1907,0.1625,10.2898,-0.00432,-0.00321,0.00438,0.0,102.225,0.007,0.0,15.0,-0.019,15.0,54.0,0.0
11.811,-0.04,-0.0919,9.6185,-0.01,-0.00446,0.00071,0.0,102.375,0.007,0.0,15.0,-0.018,15.0,54.0,0.0
11.821,0.1542,-0.0099,10.2617,-0.00575,0.00554,0.00208,0.0,102.525,0.007,0.0,15.0,-0.018,15.0,54.0,0.0
11.831,-0.207,-0.277,9.9828,-0.00658,-0.00276,0.00351,0.0,102.675,0.007,0.0,15.0,-0.018,15.0,54.0,0.0
11.841,-0.2381,-0.0583,10.662,-0.00671,-0.00055,-0.00536,0.0,102.825,0.006,0.0,15.0,-0.018,15.0,54.0,0.0
11.851,-0.0064,-0.1922,9.8405,0.00862,-0.00064,0.00321,0.0,102.975,0.006,0.0,15.0,-0.018,15.0,54.0,0.0
11.861,0.0681,0.0978,9.8821,-0.00537,0.00885,-0.0042,0.0,103.125,0.006,0.0,15.0,-0.017,15.0,54.0,0.0
11.871,0.1173,-0.3246,9.4113,-0.00364,0.00645,-0.0,0.0,103.275,0.006,0.0,15.0,-0.017,15.0,54.0,0.0
11.881,0.0666,-0.1161,10.2216,-1e-05,-0.0095,-0.00117,0.0,103.425,0.006,0.0,15.0,-0.017,15.0,54.0,0.0
11.891,0.2803,0.0693,9.6383,-0.00606,-0.00496,0.00943,0.0,103.575,0.006,0.0,15.0,-0.017,15.0,54.0,0.0
11.901,0.1161,-0.0908,10.286,0.0092,-0.00066,-0.00332,0.0,103.725,0.005,0.0,15.0,-0.016,15.0,54.0,0.0
11.911,0.4396,0.0878,9.7388,0.00036,-0.00626,-0.00096,0.0,103.875,0.005,0.0,15.0,-0.016,15.0,54.0,0.0
11.921,-0.2855,0.1531,9.8733,-0.00438,0.00222,-0.00411,0.0,104.025,0.005,0.0,15.0,-0.016,15.0,54.0,0.0
11.931,0.2321,-0.2517,9.5109,-0.00171,-0.00319,0.00684,0.0,104.175,0.005,0.0,15.0,-0.016,15.0,54.0,0.0
11.941,-0.2474,-0.1594,9.1625,0.00098,0.00222,0.00467,0.0,104.325,0.005,0.0,15.0,-0.015,15.0,54.0,0.0
11.951,-0.6698,-0.0255,9.9575,-0.00348,-0.00228,0.00534,0.0,104.475,0.005,0.0,15.0,-0.015,15.0,54.0,0.0
11.961,-0.1108,0.0103,9.9389,-0.00219,0.00291,0.00705,0.0,104.625,0.004,0.0,15.0,-0.015,15.0,54.0,0.0
11.971,0.2763,-0.4201,9.9903,0.0043,0.00426,-0.00252,0.0,104.775,0.004,0.0,15.0,-0.015,15.0,54.0,0.0
11.981,-0.4934,0.2352,10.0947,0.00381,0.00159,-0.0026,0.0,104.925,0.004,0.0,15.0,-0.014,15.0,54.0,0.0
11.991,-0.0062,-0.2034,9.2612,0.00178,0.01115,0.00207,0.0,105.075,0.004,0.0,15.0,-0.014,15.0,54.0,0.0
12.001,-0.1195,-0.1184,10.1462,0.00172,-0.00133,-0.00939,0.0,105.225,0.004,0.0,15.0,-0.014,15.0,54.0,0.0
12.011,0.2295,-0.0497,9.937,0.00669,-0.00139,-0.00315,0.0,105.375,0.004,0.0,15.0,-0.014,15.0,54.0,0.0
12.021,0.1347,0.2179,9.611,0.00641,-0.0021,0.00041,0.0,105.525,0.004,0.0,15.0,-0.013,15.0,54.0,0.0
