timestamp_s,ax,ay,az,gx,gy,gz,pos_x,pos_y,pos_z,vel_x,vel_y,vel_z,speed_mps,speed_kmh,heading_deg
0.0,0.2528,1.4625,10.2532,0.002,0.00366,-0.0125,0.0,0.0,0.0,0.0,0.015,0.0,0.015,0.05,0.0
0.016666666666666666,-0.17069983561430113,1.0015222934329393,10.211064084117996,-0.0036605683641862245,-0.005140925441764576,8.698135941220667e-05,0.0,0.0006002911311251727,2.3805769845715164e-14,0.0,0.04,0.000732412470016968,0.04,0.1424293509908076,0.0
0.03333333333333333,-0.2346134997292237,1.8284190882042541,9.989197858129158,0.00596323086428799,0.00014370757699451654,0.00447844346789023,0.0,0.0020245512712236038,1.904461587657214e-13,0.0,0.065,0.0009704108712468556,0.065,0.2379533264449793,0.0
0.05,0.1579,1.8392,9.417300000000001,0.00267,0.00874,0.00012000000000000031,0.0,0.003,0.0,0.0,0.09,0.001,0.09,0.32,0.0
0.06666666666666667,-0.07732666148220334,1.0723311768874622,10.147922585825057,-0.004770002722978459,3.5629231849673514e-05,-0.004919584455206364,0.0,0.004549002253901589,-1.4588175761454274e-11,0.0,0.11499999999999998,0.0016961568921205063,0.11499999999999998,0.4129974165368099,0.0
0.08333333333333333,-0.16383907110559046,1.3709728322582797,9.530669129304574,-0.0032131117011605158,-0.0010363170679629611,0.0037588648440936403,0.0,0.007382389055462065,-1.3760211086220252e-10,0.0,0.13999999999999999,0.0019909222894028446,0.13999999999999999,0.5080135510820912,0.0
0.1,0.45160000000000006,1.278,9.9795,-0.00029999999999999927,0.009990000000000002,0.00492,0.0,0.01,0.0,0.0,0.165,0.002,0.165,0.59,0.0
0.11666666666666667,0.1536953413221306,1.4507908252293824,9.470272667430041,-0.008188200940153954,0.007048324545564231,0.0042769790248142776,0.0,0.013329484451531402,1.0561815445523024e-08,0.0,0.19,0.0030648124495510818,0.19,0.6829966319143932,0.0
0.13333333333333333,-0.3222397605638626,1.3954318382827107,10.298711784618467,-0.003352211075919592,-0.005947557779215348,-0.002517331332430644,0.0,0.016681328129797283,9.962373781807597e-08,0.0,0.21499999999999997,0.0029351849344268865,0.21499999999999997,0.778013467898732,0.0
0.15,-0.1633,1.5866,9.9721,-0.0031800000000000014,-0.00611,-0.0036,0.0,0.02,0.0,0.0,0.24000000000000002,0.004,0.24000000000000002,0.8599999999999999,0.0
0.16666666666666666,-0.15384119648116165,1.439603949632042,10.15115138001032,0.004316372283330662,0.0044607331129798864,0.0014664001192962641,0.0,0.025015365948475216,-7.64673979438293e-06,0.0,0.26499999999999996,0.004009259262526204,0.26499999999999996,0.9529966329981276,0.0
0.18333333333333332,0.3814257193422867,1.4766021769848567,9.738950658775948,-0.009664587851580482,0.003325186256910276,-0.003618017201349312,0.0,0.030002711637969706,-7.212744857817608e-05,0.0,0.2899999999999999,0.004305555555901906,0.2899999999999999,1.0480134680136264,0.0
0.2,-0.2947,1.5734,10.1479,0.005190000000000001,0.00481,-0.0007800000000000001,0.0,0.035,0.001,0.0,0.315,0.004999999999999999,0.315,1.13,0.0
0.21666666666666667,0.21107165177954154,1.4721089004303431,9.750261538428857,0.0031154085494934478,-0.0016753946393116637,0.0034760012713564354,0.0,0.03991593922277607,0.0009806734937622358,0.0,0.33999999999999997,0.004898148148143635,0.33999999999999997,1.222996632996631,0.0
0.23333333333333334,0.1442374752666993,1.289669802458875,9.873926076407642,0.00045122302759085327,0.0020830781465427514,-0.002342288964742565,0.0,0.04635544598013251,0.0009979509246395917,0.0,0.3649999999999999,0.006101851851851372,0.3649999999999999,1.3180134680134674,0.0
0.25,-0.3437,1.3849,9.3012,-0.0021599999999999996,0.0031,-0.00129,0.0,0.053,0.001,0.0,0.39000000000000007,0.006,0.39000000000000007,1.4,0.0
0.26666666666666666,0.21404678957450854,1.6147743610219238,10.215172575274396,0.0001515415871149767,-0.002436866103192974,-0.007810950210986525,0.0,0.05969648861350735,0.001000037255935789,0.0,0.4149999999999999,0.006694444444444449,0.4149999999999999,1.4929966329966329,0.0
0.2833333333333333,-0.24609114576601263,1.573701583530213,9.50591817023657,0.0036135603202470893,-0.0027856162057164837,2.6338786079943608e-05,0.0,0.06665439874607912,0.0010001024539580707,0.0,0.44,0.006990740740740742,0.44,1.588013468013468,0.0
0.3,-0.2449,1.1968000000000003,9.4776,0.00336,-0.00543,0.0016200000000000001,0.0,0.074,0.001,0.0,0.46499999999999997,0.007000000000000001,0.46499999999999997,1.67,0.0
0.31666666666666665,-0.030573229650349205,1.2454203863635707,10.610556925872181,0.006084037934815769,-0.004581324426745488,0.0009667662977025968,0.0,0.08238186015345345,0.0009923532087265348,0.0,0.49,0.008064814814814815,0.49,1.762996632996633,0.0
0.3333333333333333,0.16032983710535997,1.4937874253705243,9.638307561205101,0.0007829569653786787,-0.0029432415041183817,-0.01280995512011179,0.0,0.09097097296968053,0.0009278724097171099,0.0,0.5149999999999999,0.007935185185185186,0.5149999999999999,1.858013468013468,0.0
0.35,-0.27499999999999997,1.6258,10.359200000000001,0.0038899999999999994,-0.005210000000000001,0.00687,0.0,0.1,0.002,0.0,0.54,0.009,0.54,1.9399999999999997,0.0
0.36666666666666664,-0.12932481901919662,1.5166325784198098,10.102124204377754,-0.0007909323196660284,-0.0020898044886302003,0.001179187711338757,0.0,0.1089478713973092,0.0019806840704974515,0.0,0.5650000000000001,0.009009259259259259,0.5650000000000001,2.0329966329966327,0.0
0.3833333333333333,-0.13228869629174786,1.6236357815424312,9.98581862838045,0.007555967115985284,-0.0008423496274199357,-0.009432165158488454,0.0,0.11899080083481926,0.001998050688632356,0.0,0.59,0.009305555555555544,0.59,2.1280134680134677,0.0
0.4,0.1968,1.6859000000000002,9.367100000000002,0.00018000000000000004,-0.0035500000000000006,0.006660000000000001,0.0,0.129,0.002,0.0,0.615,0.01,0.615,2.21,0.0
0.4166666666666667,0.23326071806667353,1.369818763620467,9.683930215745903,0.004352442984883068,-0.008108744323484861,0.0005957751374859501,0.0,0.13958147041689886,0.0019923797511187035,0.0,0.6400000000000001,0.009898148148148643,0.6400000000000001,2.302996632996633,0.0
0.43333333333333335,-0.12991372188049524,1.5451178490215236,9.658305491348159,0.0016305547650008344,-0.00434896157721632,0.002333826162044783,0.0,0.15102255595449926,0.001927873464901561,0.0,0.6650000000000001,0.01110185185185651,0.6650000000000001,2.398013468013468,0.0
0.45,0.4503,1.5526,9.6118,-0.00258,0.0056300000000000005,-0.00026999999999999984,0.0,0.162,0.003000000000000001,0.0,0.6899999999999998,0.011,0.6899999999999998,2.48,0.0
0.4666666666666667,0.34594271652656156,1.7614121899923254,10.326462558550958,-0.0032833442912638612,0.005886250247188012,-0.0027318687326492543,0.0,0.17354902824941282,0.00298082056400573,0.0,0.7150000000000001,0.011694444444086755,0.7150000000000001,2.572996632996633,0.0
0.48333333333333334,-0.36349518074910786,1.6996267120592032,9.484650079997914,-0.0001624317913964273,-0.003637616616127168,0.003919060875091997,0.0,0.18638239181142965,0.0029993385004151627,0.0,0.74,0.011990740737366865,0.74,2.6680134680134686,0.0
0.5,0.060100000000000015,1.4743000000000002,9.812,0.00652,-0.0021399999999999995,-0.003490000000000001,0.0,0.199,0.003,0.0,0.765,0.012,0.765,2.75,0.0
0.5166666666666666,0.18356807225860242,1.5802742004542631,9.364147763730397,-0.006419694628377678,0.0023839357297414684,0.003423483596873953,0.0,0.2123294844156259,0.002893531908732947,0.0,0.79,0.013064815073780527,0.79,2.8429966329966323,0.0
0.5333333333333333,0.2018319916424226,1.1380648423379682,9.282025479050391,-0.004501048905097544,0.0011722805421623829,0.0001827669380183509,0.0,0.22568132812599065,0.0041066077900762145,0.0,0.815,0.012935187627864882,0.815,2.9380134680134677,0.0
0.55,-0.10350000000000001,1.5683000000000002,10.5983,0.01134,-0.0013600000000000003,0.0009600000000000002,0.0,0.239,0.004,0.0,0.84,0.014000000000000002,0.84,3.0200000000000005,0.0
0.5666666666666667,0.08550259786943343,1.4874703848267894,9.348593537682483,-0.00550774476319384,0.008433170308969588,-0.00253618132994377,0.0,0.25401536594852475,0.003990966402228968,0.0,0.865,0.014009071768441739,0.865,3.1129966329966323,0.0
0.5833333333333334,0.09340730571062933,1.3743607685851071,10.376499383815808,0.005914802044951552,-0.003240162576125886,0.00034619451814313563,0.0,0.26900271163797507,0.003927732595516579,0.0,0.8900000000000001,0.014303787058828458,0.8900000000000001,3.2080134680134686,0.0
0.6,-0.2387,1.4263000000000001,10.1805,-0.00353,0.004260000000000002,0.001370000000000001,0.0,0.284,0.005,0.0,0.915,0.014999999999999998,0.915,3.2900000000000005,0.0
0.6166666666666667,-0.0031044852840305896,1.7785264442095141,9.248397620820052,0.0023324587362976725,0.0026226124281107017,-0.002933015532390116,0.0,0.298915939222776,0.004980126210827168,0.0,0.94,0.015033891241065469,0.94,3.3829966329966332,0.0
0.6333333333333333,0.04385645163907149,1.12310536870866,10.102053971636332,0.002888442434225663,-0.007008279130744561,-0.00012093140701663029,0.0,0.31535544598013254,0.004992770833697703,0.0,0.9650000000000001,0.015308166965524013,0.9650000000000001,3.478013468013468,0.0
0.65,0.12730000000000002,1.799,9.639900000000003,-0.0048000000000000004,0.0003499999999999996,0.004250000000000001,0.0,0.332,0.005000000000000001,0.0,0.99,0.016,0.99,3.56,0.0
0.6666666666666666,0.010959562582734915,1.6117062297083697,9.820166025637112,0.0019387307948019474,-0.003187531224046259,0.0023860934470622585,0.0,0.34869648861350727,0.005693953255198144,0.0,1.0150000000000001,0.01589811414460179,1.0150000000000001,3.6529966329966332,0.0
0.6833333333333333,-0.1003745886952363,1.7794893233804079,9.53622515148004,-0.0034949022021320206,-0.00568537639446433,-0.009387781763964313,0.0,0.36565439874607897,0.005972850474013061,0.0,1.0399999999999998,0.017101848420301293,1.0399999999999998,3.748013468013467,0.0
0.7,-0.2668,1.4651,9.6756,0.00969,-0.00463,0.00793,0.0,0.38300000000000006,0.006,0.0,1.065,0.017,1.065,3.83,0.0
0.7166666666666667,0.007944138346231238,1.2553780617448684,9.647085003100466,-0.00046096158033344554,0.005426660447965438,0.00021765615557429,0.0,0.4013818601534535,0.0058940133220070695,0.0,1.09,0.017694431030201883,1.09,3.9229966329966333,0.0
0.7333333333333333,-0.2651542362880194,1.6728430223940742,9.27352524570419,-0.012736285127661723,0.0024352331673769025,-0.004515812223530662,0.0,0.41997097296968056,0.0071079304252904965,0.0,1.115,0.017990613773375054,1.115,4.018013468013469,0.0
0.75,0.3101,1.4181,9.2218,-0.0002899999999999999,-0.005250000000000001,0.0,0.0,0.439,0.007000000000000001,0.0,1.14,0.018,1.14,4.1000000000000005,0.0
0.7666666666666666,0.024591682151394983,1.2805437336732033,10.071673211106374,0.0016756015147784769,0.004974626156376766,0.004060109176433001,0.0,0.45794787139730964,0.006892253463535916,0.0,1.1649999999999998,0.019074560729977943,1.1649999999999998,4.192996632996632,0.0
0.7833333333333333,0.17851203159100476,1.7978883892354753,9.280930292019438,-0.0021413320374227838,-0.0034949182679006882,-0.002224168399856244,0.0,0.47799080083482387,0.00810774383788977,0.0,1.1900000000000002,0.019027112989492192,1.1900000000000002,4.288013468013467,0.0
0.8,0.025200000000000014,1.5485000000000002,9.7396,-0.002620000000000001,0.00483,-0.00681,0.0,0.49799999999999994,0.008,0.0,1.215,0.019000000000000003,1.215,4.37,0.0
0.8166666666666667,-0.036292386322985794,1.3763735736693767,9.403728674401302,-0.00014231289712491826,-0.0023378495165021565,-0.0011707739671985582,0.0,0.5185814704165429,0.007892256855766824,0.0,1.2399999999999998,0.020064341206508834,1.2399999999999998,4.462996632996632,0.0
0.8333333333333334,-0.07759737633930915,1.5957557637139053,9.85568407296345,0.007159939481024759,-0.00479737017029954,0.0034326226083354473,0.0,0.5400225559511429,0.009107753164738204,0.0,1.265,0.01993513738983437,1.265,4.558013468013469,0.0
0.85,-0.13090000000000002,1.5535000000000003,9.6573,-0.0014400000000000007,0.010230000000000001,-0.005710000000000001,0.0,0.5609999999999999,0.009,0.0,1.29,0.021000000000000005,1.29,4.64,0.0
0.8666666666666667,0.1898886082831736,1.5655296704388595,9.165970226051765,0.002310047114776709,-0.0033330576902893816,0.0008513541864358679,0.0,0.5825490285070437,0.008891560739061385,0.0,1.3150000000000002,0.021009072424288826,1.3150000000000002,4.732996632996634,0.0
0.8833333333333333,0.0018995491775747409,1.6033646078233021,9.869900882443648,0.003800332960709041,-0.003006115472334477,-0.005157933368360766,0.0,0.605382394241518,0.010101187113873682,0.0,1.3399999999999999,0.02130378714079184,1.3399999999999999,4.828013468013468,0.0
0.9,0.27740000000000004,1.6591000000000002,9.6235,0.0003899999999999997,-0.0036100000000000004,0.0046700000000000005,0.0,0.6279999999999999,0.01,0.0,1.3650000000000002,0.022,1.3650000000000002,4.91,0.0
0.9166666666666666,0.2471622115263047,1.650359843410599,9.736512849306896,0.0010696832802621946,0.0003216172860238352,-0.0014126199753403202,0.0,0.6513292978912814,0.01069184213786439,0.0,1.3900000000000001,0.022033890275048835,1.3900000000000001,5.002996632996632,0.0
0.9333333333333333,-0.032872524520182356,1.3183792833271117,9.868421482280493,0.001150848817468114,0.0025590462145149697,-0.007842567618838496,0.0,0.6746795687454665,0.01096610972404897,0.0,1.4149999999999996,0.022308157862057046,1.4149999999999996,5.098013468013468,0.0
0.95,-0.1305,1.2555,9.5273,0.00214,-0.005860000000000001,0.0018699999999999997,0.0,0.698,0.010999999999999998,0.0,1.44,0.023000000000000003,1.44,5.179999999999999,0.0
0.9666666666666667,0.20433320963454835,1.432821478060671,9.805626875762263,-0.0007722235061621059,-0.002879338872468458,-0.00360301055859342,0.0,0.7231504093163061,0.011696212928597757,0.0,1.465,0.022898812884800876,1.465,5.272996632996634,0.0
0.9833333333333333,-0.22813624100963867,1.2679009300150228,10.096157057587297,0.0023480861553454944,-0.0025440845772502093,-0.004608666148104471,0.0,0.747202426633149,0.011990928230224891,0.0,1.4900000000000004,0.02410843924842483,1.4900000000000004,5.368013468013468,0.0
1.0,0.16720000000000002,1.6203,9.7163,-0.0016200000000000003,0.0012800000000000003,0.00586,0.0,0.7730000000000001,0.012000000000000004,0.0,1.5150000000000001,0.024,1.5150000000000001,5.45,0.0
1.0166666666666666,-0.1192911721224421,1.1259715221458209,9.063195765482316,-0.0017591240782092524,0.0031367634181820327,0.004412634767383384,0.0,0.797922505251245,0.013064812372178162,0.0,1.54,0.023892247795782286,1.54,5.5429966329966325,0.0
1.0333333333333332,0.544485089572501,1.6174844228342735,10.07112067636793,0.0027203302679329523,-0.001371812285374714,-0.00800462263496441,0.0,0.8243561414473266,0.012935184926463525,0.0,1.565,0.0251077522042894,1.565,5.638013468013468,0.0
1.05,-0.10140000000000005,1.5711,9.7327,-0.00032999999999999913,0.00522,0.00434,0.0,0.851,0.014000000000000002,0.0,1.5900000000000003,0.025,1.5900000000000003,5.72,0.0
1.0666666666666667,-0.023109778172868904,1.5838520439215082,9.857609285414394,0.005493241314892133,-0.0063984870025362885,-0.0018049313973365706,0.0,0.877696529522986,0.014009259244042015,0.0,1.6150000000000002,0.02489156074660013,1.6150000000000002,5.812996632996632,0.0
1.0833333333333333,-0.50874638726047,1.676617678705783,9.892239918709091,-0.0019657186571018707,-0.003100487477975911,-0.008718990582208628,0.0,0.9046548692058214,0.014305555380553768,0.0,1.64,0.02610118706827318,1.64,5.908013468013467,0.0
1.1,-0.004599999999999991,1.5066,9.426200000000001,-0.00693,-0.00779,0.0019500000000000012,0.0,0.9319999999999999,0.015,0.0,1.665,0.026,1.665,5.99,0.0
1.1166666666666667,-0.36062943072126025,1.6661449749804678,9.861889001905494,0.00024907876289366894,-0.0038329143226401388,-0.0010011919845913503,0.0,0.960345675662296,0.014898161608069305,0.0,1.6900000000000002,0.02669184573979908,1.6900000000000002,6.0829966329966325,0.0
1.1333333333333333,0.014469657376269995,1.2930569349239802,10.354841141199225,0.0034781256219329356,0.0007399315250455445,0.0011934337837159646,0.0,0.9885926276118684,0.016101978811854406,0.0,1.7149999999999999,0.026966143699259225,1.7149999999999999,6.178013468013469,0.0
1.15,-0.5234,1.8384,9.6324,0.0010900000000000003,0.0003499999999999995,-0.003280000000000001,0.0,1.0180000000000002,0.016,0.0,1.74,0.027,1.74,6.26,0.0
1.1666666666666667,0.3235509536994578,1.5841749591109475,10.101879260934846,0.0013122528686579117,0.00033882696437204985,0.000209039352595505,0.0,1.0469231798634686,0.016684699476740852,0.0,1.7650000000000003,0.02769360512033911,1.7650000000000003,6.352996632996634,0.0
1.1833333333333333,-0.2510855531560022,1.3979910659623522,10.001514593795456,-0.0005150094001258311,0.0012941374190507562,-0.0014222540132899425,0.0,1.0769864435053225,0.016898821873898295,0.0,1.7900000000000003,0.02796633022360542,1.7900000000000003,6.4480134680134675,0.0
1.2,0.42950000000000005,1.1563999999999999,9.6505,0.00554,0.0004000000000000002,0.00262,0.0,1.107,0.018000000000000002,0.0,1.815,0.028,1.815,6.529999999999999,0.0
1.2166666666666666,-0.014227714350795692,1.4751549990631894,9.593796451627673,-0.008143489004744639,-0.005878178253117151,0.007684108112932252,0.0,1.1377165476310866,0.01800904686119747,0.0,1.8399999999999999,0.028693602690250834,1.8399999999999999,6.622996632996632,0.0
1.2333333333333334,0.21130786461002277,1.680000197223669,9.946252210145463,-0.00037094956046604654,0.0004364289339746611,-0.0009974540877010945,0.0,1.1682222745346509,0.01829913263392737,0.0,1.865,0.028966329965974612,1.865,6.71801346801347,0.0
1.25,0.027599999999999986,1.2189999999999999,9.6828,-0.007579999999999999,0.00592,0.00605,0.0,1.2000000000000002,0.019,0.0,1.89,0.029000000000000005,1.89,6.8,0.0
1.2666666666666666,0.46469571775849955,1.5497242376554399,9.324026797667107,-0.001275472692769107,0.006477413477589678,0.003940390588179498,0.0,1.2315555944887626,0.019691298942215725,0.0,1.915,0.029693602693607313,1.915,6.892996632996633,0.0
1.2833333333333332,-0.07658620227597832,1.654451329287769,9.656433409034014,0.011545454140497438,0.001184277346336482,0.0008886431385514747,0.0,1.2643830897037511,0.019899521533058837,0.0,1.9399999999999997,0.029966329966330477,1.9399999999999997,6.988013468013467,0.0
1.3,-0.32630000000000003,1.3585,9.4299,-0.0036200000000000013,-0.00149,-0.0056500000000000005,0.0,1.2969999999999997,0.021,0.0,1.9650000000000003,0.030000000000000002,1.9650000000000003,7.07,0.0
1.3166666666666667,0.2669391683103026,1.520856197658569,9.72210203738958,-0.0017231703192902026,0.008710820478145063,0.0003838467859074019,0.0,1.3303293388011805,0.021009037493128678,0.0,1.99,0.030693602693600844,1.99,7.1629966329966335,0.0
1.3333333333333333,-0.23280482421230836,1.5732744354696073,10.143726315894956,0.0027091888773092087,-0.00617693138521933,0.0004457477023293343,0.0,1.3636800392085724,0.021299129283329138,0.0,2.0149999999999992,0.030966329966312683,2.0149999999999992,7.258013468013467,0.0
1.35,0.3138000000000001,1.5559,9.975500000000002,0.0007199999999999999,0.0004599999999999999,0.0071400000000000005,0.0,1.397,0.022,0.0,2.04,0.031000000000000003,2.04,7.34,0.0
1.3666666666666667,-0.03482764849541794,1.3943516205056294,10.22019072487044,-0.003508845770715233,-0.005612550765768666,-0.00448398210365266,0.0,1.4321142245675178,0.022691481958545118,0.0,2.065,0.03169360269492889,2.065,7.432996632996632,0.0
1.3833333333333333,-0.13491736430759668,1.5287203536768736,9.657391660788441,-0.0014252383493887483,0.0006436751819635243,-0.0012177574026683495,0.0,1.4658240788452486,0.022901247707003292,0.0,2.0900000000000003,0.03196632997883924,2.0900000000000003,7.5280134680134685,0.0
1.4,-0.31099999999999994,1.6968,10.2698,0.003459999999999999,-0.0005899999999999999,0.008720000000000002,0.0,1.502,0.024,0.0,2.115,0.032,2.115,7.61,0.0
1.4166666666666667,-0.011358694666103283,1.5455372229309954,9.85600204530534,-0.005611750942091845,0.0066596376420356975,-0.0035271000377295526,0.0,1.5368980002417483,0.02387654303872192,0.0,2.1400000000000006,0.03269360173343816,2.1400000000000006,7.7029966329966335,0.0
1.4333333333333333,-0.36296415782951685,1.4454857987679537,9.409152014017382,0.0029296723764022287,-0.0032401966526433264,0.001624685903636032,0.0,1.5733535434983497,0.02512345677221193,0.0,2.1650000000000005,0.032966320909631135,2.1650000000000005,7.798013468013468,0.0
1.45,0.14530000000000004,1.3676999999999997,10.1815,0.0030599999999999994,-0.00826,-0.0061600000000000005,0.0,1.6099999999999999,0.025,0.0,2.1900000000000004,0.033,2.1900000000000004,7.880000000000001,0.0
1.4666666666666666,-0.1453922280509504,1.3153211996753762,9.953417362955888,0.008476898215670405,0.0009789720060674604,0.0008344094198744474,0.0,1.6466965633697488,0.026098765414187278,0.0,2.215,0.033694297851412154,2.215,7.972996632996631,0.0
1.4833333333333334,-0.33700273749210297,1.4419354123998893,10.119087227665625,0.005544660056464181,0.0006009235540581986,-0.00408705905201845,0.0,1.6836548727941558,0.02630864180415445,0.0,2.24,0.03397288700377398,2.24,8.068013468013469,0.0
1.5,-0.15639999999999998,1.5837,10.2178,0.00753,0.002170000000000001,0.0012800000000000003,0.0,1.721,0.027000000000000003,0.0,2.265,0.034,2.265,8.15,0.0
1.5166666666666666,0.25019476651732087,1.507699397282676,9.477701248701253,-0.0001688534995773231,-9.759225712165158e-05,0.004970235604198094,0.0,1.7593456756155463,0.027691371163761632,0.0,2.2899999999999996,0.03389401310341292,2.2899999999999996,8.242996632996633,0.0
1.5333333333333332,-0.06756871270397369,1.4055015496370036,9.53745811903545,0.002483483780590807,-0.0050214194485084015,-0.005473561871886319,0.0,1.7975926276069112,0.027901358501455236,0.0,2.315,0.03510793280244786,2.315,8.338013468013468,0.0
1.55,-0.2917,1.6877,9.8815,-0.0021299999999999995,-0.0011900000000000003,-0.0002600000000000005,0.0,1.837,0.028999999999999998,0.0,2.3400000000000003,0.03500000000000001,2.3400000000000003,8.42,0.0
1.5666666666666667,0.12415904728980992,1.6493966491520282,9.347963762517875,-0.0038732608180690937,0.004263377705559254,0.005652050177715303,0.0,1.8759231798635325,0.028867030540906037,0.0,2.365,0.03489206712948834,2.365,8.51299663299663,0.0
1.5833333333333333,0.12008777220007462,1.4677389467014306,10.07244199807581,-0.0026209912783015667,0.0006312016105037715,0.0029921505938899536,0.0,1.9159864435053289,0.030033729068184255,0.0,2.3899999999999992,0.03610598624619956,2.3899999999999992,8.608013468013468,0.0
1.6,0.2725,1.5094000000000003,9.465099999999998,0.00851,0.0037,-0.00461,0.0,1.9560000000000004,0.031000000000000003,0.0,2.415,0.036,2.415,8.69,0.0
1.6166666666666667,-0.05722648582018799,1.835045135169893,9.24448654020867,0.0007833894853089363,-0.00027008878997137286,0.004332102396555809,0.0,1.9967165476310866,0.03087481351656795,0.0,2.44,0.03602716292481202,2.44,8.782996632996634,0.0
1.6333333333333333,0.09627349169829123,1.1814936311163573,10.157379718537838,0.002230868376386505,-0.0019966947044223944,-0.0022201347710693042,0.0,2.037222274534651,0.03212324057759038,0.0,2.4650000000000003,0.03630617309721492,2.4650000000000003,8.878013468013469,0.0
1.65,-0.0478,1.4488000000000003,9.4269,-0.0059900000000000005,0.0009699999999999995,-0.0013499999999999999,0.0,2.079,0.032,0.0,2.4899999999999998,0.037000000000000005,2.4899999999999998,8.96,0.0
1.6666666666666667,0.06426113097064687,1.5318625248846927,10.44181816343444,0.002192606787754408,0.007673128455982418,-0.002227888987842254,0.0,2.1205555944887626,0.033101316797226714,0.0,2.515,0.03699753086216833,2.515,9.052996632996633,0.0
1.6833333333333333,0.047737571570292875,1.338664717646758,9.98003437312308,-0.006867342855122723,-0.005226087460555176,0.001953942178784631,0.0,2.163383089703752,0.033332685348968355,0.0,2.5400000000000005,0.036928395073903615,2.5400000000000005,9.148013468013469,0.0
1.7,0.28730000000000006,1.1251,9.073600000000003,0.0022600000000000003,-0.0027800000000000004,0.00073,0.0,2.206,0.034,0.0,2.5650000000000004,0.038,2.5650000000000004,9.23,0.0
1.7166666666666666,0.17496395936770284,1.5365979594229036,10.271844614741196,0.003438185069340377,0.004393975547708038,0.005690265541882938,0.0,2.249329338801181,0.03510515862462029,0.0,2.5900000000000003,0.03798271508754017,2.5900000000000003,9.322996632996631,0.0
1.7333333333333334,-0.33248641970297077,1.639354496332429,9.363515621836504,0.003204617991725807,0.004086979109322425,0.003778219553233714,0.0,2.2926800392085727,0.03530886306562433,0.0,2.6149999999999998,0.03801727487804764,2.6149999999999998,9.418013468013468,0.0
1.75,0.3016,1.4348999999999998,10.392700000000001,0.0012500000000000002,-0.0032300000000000002,-0.001770000000000001,0.0,2.336,0.036,0.0,2.64,0.038000000000000006,2.64,9.5,0.0
1.7666666666666666,0.13367302754887153,1.7868963344145554,9.551051134310224,0.004709921528227736,0.005187834262638624,0.005204895923823118,0.0,2.3811142245675176,0.03672680194064907,0.0,2.665,0.039072301314302234,2.665,9.59299663299663,0.0
1.7833333333333332,0.028389552641220693,1.4875947524885913,9.476885046874848,-0.007730897969208874,-0.004157158059256232,0.0013802864652189555,0.0,2.4248240788452478,0.037272677361251394,0.0,2.6900000000000004,0.039009037664049916,2.6900000000000004,9.688013468013466,0.0
1.8,0.22780000000000003,1.6232,10.0237,-0.0019700000000000004,0.004560000000000001,-0.00685,0.0,2.471,0.038,0.0,2.715,0.039,2.715,9.77,0.0
1.8166666666666667,-0.2527840528962794,1.2763966651815992,9.758389700216776,0.001794924790136011,0.0036495738574020263,0.0017917522768639113,0.0,2.515898000241748,0.03872727338248115,0.0,2.74,0.038893355579869074,2.74,9.862996632996635,0.0
1.8333333333333333,-0.05146450735235041,1.6925335908125592,9.750332663001513,-0.003420414210559869,-0.004521581244963947,0.001417712961431032,0.0,2.562353543498349,0.03927272738835108,0.0,2.7649999999999992,0.040106123016479235,2.7649999999999992,9.958013468013466,0.0
1.8499999999999999,-0.33530000000000293,1.4720000000000009,9.126200000000004,-0.0034299999999998247,0.0011699999999998513,-0.004469999999999896,0.0,2.6089999999999995,0.04000000000000001,0.0,2.7899999999999996,0.04000000000000001,2.7899999999999996,10.04,0.0
1.8666666666666667,0.15819238046470363,1.2605625185536393,10.091276279109042,0.005442308191051673,-0.0038207885032028838,-0.007530211039932843,0.0,2.655696563369749,0.04072726914298936,0.0,2.815,0.04002714774937748,2.815,10.132996632996633,0.0
1.8833333333333333,0.07415080749253979,1.6475299436592294,9.615237310403398,0.00242819382180864,0.000423831265052183,-0.0035370631339869513,0.0,2.7026548727941564,0.04127269347254997,0.0,2.8400000000000007,0.04030604655313211,2.8400000000000007,10.228013468013469,0.0
1.9,-0.39259999999999995,1.4319,9.8193,0.00541,0.00499,0.004210000000000002,0.0,2.75,0.04200000000000001,0.0,2.8650000000000007,0.04100000000000001,2.8650000000000007,10.31,0.0
1.9166666666666667,0.3742968927494561,1.502613976059097,9.574562002612547,0.0020513522958223833,0.00025019135040525134,-0.004325626032142212,0.0,2.7983456756155465,0.042729867093220214,0.0,2.89,0.041007229426393337,2.89,10.402996632996631,0.0
1.9333333333333333,-0.2741719690988124,1.2097612739811534,9.887395345677191,0.0016499390728950854,-0.0008426250231664868,0.0017063664154386101,0.0,2.8465926276069125,0.04329719848548103,0.0,2.9150000000000005,0.04101987621958574,2.9150000000000005,10.49801346801347,0.0
1.95,0.4075000000000001,1.8409,10.5046,-0.007810000000000002,-0.00523,0.00225,0.0,2.896,0.044000000000000004,0.0,2.94,0.041,2.94,10.580000000000002,0.0
1.9666666666666666,0.2756350467087178,1.6454039998436936,9.7728819775468,0.0026704814855010328,0.001535213772721369,-0.0025161713186219615,0.0,2.9449231798635327,0.045108214624844184,0.0,2.965,0.04207208087517937,2.965,10.672996632996634,0.0
1.9833333333333334,-0.40326369846885013,1.4091262125058859,9.616136123009385,-0.0004851937090088031,-0.0005703515295560422,0.007005556134233806,0.0,2.9949864435053297,0.04533338081696558,0.0,2.9900000000000007,0.04200727417049788,2.9900000000000007,10.768013468013468,0.0
2.0,0.2629,1.625,9.9393,-0.00103,-0.00219,-0.0033299999999999996,0.0,3.045,0.046000000000000006,0.0,3.015,0.041999999999999996,3.015,10.85,0.0
2.0166666666666666,0.17432929014122522,1.6559234704396297,9.118934401648664,-0.009008836687366061,0.005889111273419519,-0.0026900429892775346,0.0,3.0957165476310875,0.04710792970477337,0.0,3.040000000000001,0.042028439165969454,3.040000000000001,10.942996632996634,0.0
2.033333333333333,-0.14656219130440348,1.7692127236109658,9.970099743671382,-0.0025982122689680075,-0.0009776823930881045,-0.00594011871187754,0.0,3.1462222745346513,0.04733509003144313,0.0,3.0650000000000004,0.04230621693254534,3.0650000000000004,11.03801346801347,0.0
2.05,0.08279999999999998,1.4371999999999996,9.239800000000002,0.00246,-0.006479999999999999,-0.00875,0.0,3.1979999999999995,0.048,0.0,3.09,0.043,3.09,11.119999999999997,0.0
2.0666666666666664,-0.05177073858448517,1.3914811796421633,10.299040858446414,0.003286909797107288,-0.0035862201728467614,0.0008428511111131319,0.0,3.2495555944887617,0.04897290134146205,0.0,3.115,0.0430046296296128,3.115,11.212996632996632,0.0
2.0833333333333335,-0.10928016751566115,1.5576693005635545,9.600723532991283,0.001877913478884519,-0.002471299578359804,0.00478483570954371,0.0,3.3023830897037514,0.05013551049228759,0.0,3.1399999999999997,0.04299537037037317,3.1399999999999997,11.308013468013469,0.0
2.1,0.23979999999999999,1.2240000000000002,9.362200000000001,0.00242,0.010980000000000002,0.0006799999999999997,0.0,3.355,0.05,0.0,3.165,0.043000000000000003,3.165,11.39,0.0
2.1166666666666667,-0.1351330734937118,1.6796802464082676,10.05112482388606,-0.0001483008626258619,-0.0006005209472330401,0.000493616321245231,0.0,3.408329338801181,0.05095594352114724,0.0,3.190000000000001,0.043693783068427236,3.190000000000001,11.482996632996633,0.0
2.1333333333333333,-0.07281874957914214,1.4555099646728986,10.037310518792957,-0.004054479776726522,0.0063611697184136895,-0.008577231294271414,0.0,3.461680039208573,0.052036795033828805,0.0,3.2150000000000003,0.04397156084320429,3.2150000000000003,11.57801346801347,0.0
2.15,-0.0401,1.2338,10.3086,0.00087,0.004459999999999999,0.008199999999999999,0.0,3.515,0.053,0.0,3.24,0.044,3.24,11.66,0.0
2.1666666666666665,-0.20521368159864167,1.6305093096629637,10.001734796196095,0.004368099929205494,-0.004672539956392907,-0.0033899565815319705,0.0,3.5701142245675173,0.05366473008867061,0.0,3.2649999999999992,0.04399272512536116,3.2649999999999992,11.75299663299663,0.0
2.183333333333333,-0.07178217422164561,1.781105165146755,9.61273493498069,0.0006387782044228052,0.00134146048390758,-0.0024793786571122413,0.0,3.623824078845248,0.05389155168232471,0.0,3.29,0.04392791248305021,3.29,11.848013468013468,0.0
2.2,-0.016999999999999994,1.4261,9.599200000000002,0.0033400000000000005,-0.0014700000000000008,-0.006380000000000001,0.0,3.6800000000000006,0.05500000000000001,0.0,3.3150000000000004,0.045,3.3150000000000004,11.93,0.0
2.216666666666667,-0.06409478241963551,1.3756240020514348,10.082519767166422,-0.0025871589933650083,-0.00521499506868399,0.007566800559892712,0.0,3.734898000241748,0.05570539820724406,0.0,3.3400000000000007,0.044980633577491554,3.3400000000000007,12.022996632996632,0.0
2.2333333333333334,-0.38521303988704175,1.426002320930411,9.519581740370093,-0.008177236521487326,-0.0036448563639783268,-0.0017974357713230872,0.0,3.7913535434983503,0.056294601777908126,0.0,3.3650000000000007,0.04499757920623527,3.3650000000000007,12.11801346801347,0.0
2.25,0.20180000000000003,1.3793,10.205700000000002,-0.00174,0.00251,-0.009250000000000001,0.0,3.848,0.057,0.0,3.3899999999999997,0.045000000000000005,3.3899999999999997,12.200000000000001,0.0
2.2666666666666666,-0.16957125399139647,1.6713983902836782,9.287438960503726,0.0020339001559572917,-0.0017832525386234257,-0.002194759891837446,0.0,3.904696563369749,0.05810844934811449,0.0,3.415,0.045028564770753385,3.415,12.292996632996635,0.0
2.283333333333333,0.362467496881716,1.3762441108666856,10.082696148179394,0.0007719448338561241,0.005882324814193642,0.001886951169083774,0.0,3.9616548727941563,0.05833527963071668,0.0,3.4400000000000004,0.04530622368410368,3.4400000000000004,12.388013468013469,0.0
2.3,-0.1419,1.4319,9.9391,0.005009999999999999,-0.00473,0.0013899999999999993,0.0,4.019,0.059,0.0,3.4649999999999994,0.04599999999999999,3.4649999999999994,12.47,0.0
2.3166666666666664,0.6284493388543432,1.3936858770122413,9.694754309613963,0.0007964090432501089,-0.0032912780791126616,-0.005385824054754477,0.0,4.077345675615546,0.059962458943062624,0.0,3.4899999999999993,0.046005139063721306,3.4899999999999993,12.562996632996631,0.0
2.3333333333333335,-0.14276581358411758,1.3633317819585347,10.071362533307592,0.007257324957791017,0.004020579776720967,0.000359233799132454,0.0,4.135592627606911,0.06103701965729913,0.0,3.515,0.04600017720640552,3.515,12.658013468013467,0.0
2.35,0.1788000000000001,1.4853999999999998,9.8464,0.0035399999999999997,0.006810000000000001,-0.0006200000000000001,0.0,4.195,0.06200000000000001,0.0,3.5400000000000005,0.046000000000000006,3.5400000000000005,12.740000000000002,0.0
2.3666666666666667,0.312361034549552,1.4174340602657234,9.86755199010317,-0.0002988622838976123,0.001695989223638474,0.010881375534034305,0.0,4.253923179863533,0.06270090550417656,0.0,3.5649999999999995,0.04602853087279733,3.5649999999999995,12.832996632996634,0.0
2.3833333333333333,-0.36638883234526104,1.5995494548590703,10.336885292689578,-0.002875214274605443,-0.0008417127898795548,-0.005446666185520468,0.0,4.313986443505327,0.06326989589210841,0.0,3.5900000000000003,0.04630621961903195,3.5900000000000003,12.928013468013472,0.0
2.4,-0.3232,1.8029,9.370199999999999,6.999999999999997e-05,0.00356,-0.00039999999999999986,0.0,4.373999999999999,0.064,0.0,3.615,0.047,3.615,13.009999999999998,0.0
2.4166666666666665,0.06778386949513411,1.485954490602862,9.928323374209544,0.00546210672083679,-0.003113067983295922,0.004066233710304098,0.0,4.434716547631347,0.06473010418126655,0.0,3.6399999999999997,0.047005175697679424,3.6399999999999997,13.10299663299663,0.0
2.433333333333333,0.158935987104914,1.4019258630372395,9.887096670554248,-0.0031636716249521003,-0.002510149533571821,0.00288745488797446,0.0,4.495222274537107,0.06529909519696216,0.0,3.665,0.04700052231816489,3.665,13.198013468013468,0.0
2.45,-0.14409999999999998,1.4308,9.383100000000002,-0.00025999999999999916,-0.00888,0.0020500000000000006,0.0,4.557,0.06599999999999999,0.0,3.6900000000000004,0.04700000000000001,3.6900000000000004,13.280000000000001,0.0
2.466666666666667,0.12307671022676608,1.5464184469605404,9.941862119219874,0.004913226027576228,0.011974119571611456,0.0034624552427377575,0.0,4.618555594300165,0.06696292651807316,0.0,3.715,0.047002041785076415,3.715,13.372996632996635,0.0
2.4833333333333334,-0.227221387173445,1.173155335795821,10.438965966759838,-0.003500603334441715,-0.00293076564498332,0.0033271050695903286,0.0,4.681383087924805,0.0680370333591124,0.0,3.74,0.04701932573329296,3.74,13.46801346801347,0.0
2.5,-0.0396,1.2538,9.9867,-0.0022199999999999998,-0.00171,-0.007450000000000001,0.0,4.744,0.06900000000000002,0.0,3.7649999999999997,0.047,3.7649999999999997,13.55,0.0
2.5166666666666666,-0.2866479995980407,1.7172195395972731,9.658531940231876,0.004746693758453917,-0.007502094455898329,-0.004027903526503229,0.0,4.807329475346479,0.06970368932636133,0.0,3.790000000000001,0.048072127462556534,3.790000000000001,13.642996632996631,0.0
2.533333333333333,-0.13421463649581789,1.212533243009656,10.149061913844971,0.006318633908870002,0.006643365390336126,0.01073440065458031,0.0,4.870681327164506,0.07029616021307891,0.0,3.815,0.048007646777732296,3.815,13.73801346801347,0.0
2.55,-0.05810000000000001,1.5185,9.775499999999997,-0.00182,-0.006960000000000001,-0.0059299999999999995,0.0,4.934,0.071,0.0,3.84,0.048,3.84,13.819999999999997,0.0
2.5666666666666664,0.21588981356869255,1.4389052549870949,9.762794634381077,-7.950714820633914e-05,-0.0002436594272223033,0.004401920167793325,0.0,4.999015365961049,0.07197340860373617,0.0,3.8649999999999998,0.04799989754621834,3.8649999999999998,13.91299663299663,0.0
2.5833333333333335,0.19175524718322953,1.7554878363223165,10.214682483557612,-0.0014025689096440893,-0.00494762881015323,0.010099043236591118,0.0,5.064002711639303,0.0731355649643572,0.0,3.89,0.047999962744082914,3.89,14.008013468013466,0.0
2.6,0.21290000000000003,1.541,9.8618,-0.003370000000000001,0.00448,-0.007680000000000001,0.0,5.1290000000000004,0.07300000000000001,0.0,3.9150000000000005,0.048,3.9150000000000005,14.09,0.0
2.6166666666666667,0.038963716609050555,1.6340721460427436,9.897715730839625,-0.004148333271823756,0.004266704950207581,-2.19275855447167e-05,0.0,5.193915939222759,0.07395588897605329,0.0,3.94,0.048002049075360174,3.94,14.182996632996632,0.0
2.6333333333333333,0.11441197213368222,1.525717704073327,9.460153323768736,0.0032049603771438107,0.004409152419840984,-0.009109111354089719,0.0,5.260355445980131,0.07503628707376683,0.0,3.9650000000000003,0.04801932650623782,3.9650000000000003,14.27801346801347,0.0
2.65,-0.3401,1.5432999999999997,10.1038,0.00032999999999999956,0.004060000000000001,0.005349999999999999,0.0,5.327,0.07599999999999998,0.0,3.99,0.048,3.99,14.359999999999998,0.0
2.6666666666666665,0.12044973184899842,1.4657647137705443,9.674453274770107,-0.006395722569935368,-0.004778131930475394,-0.0070974593444806215,0.0,5.393696488613506,0.07670371347442247,0.0,4.014999999999999,0.049072127448572776,4.014999999999999,14.45299663299663,0.0
2.683333333333333,-0.05414899789388604,1.5352536738480222,9.845596293058394,0.0011512558575758308,3.016573418247709e-05,0.0017657252724555845,0.0,5.460654398746078,0.07729629733215912,0.0,4.04,0.049007646739743456,4.04,14.548013468013469,0.0
2.7,0.08729999999999999,1.5433000000000001,9.8819,0.0006200000000000002,0.0037800000000000004,0.00405,0.0,5.528,0.078,0.0,4.065,0.049,4.065,14.63,0.0
2.716666666666667,-0.20474735306187,1.6828417507538107,10.295987409672946,0.0008992516828100521,0.0028885904917964893,0.0019869374341097965,0.0,5.596381860153454,0.07896296294946747,0.0,4.09,0.04899990038017108,4.09,14.722996632996633,0.0
2.7333333333333334,0.2374884289769528,1.3628039114371178,9.721178650094844,0.0050439468858890545,-0.003950995819637654,0.003985495577589107,0.0,5.664970972969681,0.08003703703560629,0.0,4.115000000000001,0.048999989475054934,4.115000000000001,14.81801346801347,0.0
2.75,0.4809,1.3142999999999998,9.341400000000002,-0.0035499999999999998,0.004619999999999999,0.009629999999999996,0.0,5.733999999999999,0.08099999999999999,0.0,4.14,0.04900000000000001,4.14,14.899999999999999,0.0
2.7666666666666666,0.01907092197948935,1.6902188515831003,10.125776936835058,-0.0060795328215879,0.0005049121661404386,-0.005826724432513102,0.0,5.80294787139731,0.08170370370372236,0.0,4.165,0.04899999730757219,4.165,14.992996632996633,0.0
2.783333333333333,0.1560708630242753,1.4442366679002692,9.245564741978164,7.786542545030847e-05,-0.009381784909164722,-0.004473412335892852,0.0,5.8729908008348195,0.08229629629629827,0.0,4.1899999999999995,0.048999973320488006,4.1899999999999995,15.08801346801347,0.0
2.8,0.42949999999999994,1.5397000000000003,10.0477,0.0012099999999999997,-0.0015400000000000006,-0.0031,0.0,5.943,0.08300000000000002,0.0,4.215,0.049,4.215,15.170000000000002,0.0
2.8166666666666664,-0.2381557156458256,1.3797615549357367,10.072988099526619,-0.0011330444087558954,0.007223149370703799,0.002253033186814419,0.0,6.013581470416898,0.08396296296296292,0.0,4.24,0.04900204893756797,4.24,15.262996632996632,0.0
2.8333333333333335,0.22838822292893146,1.2959485287675643,10.35264815770862,-0.00287147787485332,-0.004986359574807622,-0.002622001428227425,0.0,6.0850225559545,0.08503703703703705,0.0,4.265000000000001,0.04901932649162941,4.265000000000001,15.35801346801347,0.0
2.85,0.3242,1.7523,9.3995,-0.010470000000000002,0.0026100000000000003,0.00043000000000000026,0.0,6.156000000000001,0.086,0.0,4.29,0.04900000000000001,4.29,15.44,0.0
2.8666666666666667,0.1777042426388104,1.2377338934611433,10.126990857748073,0.0011944255014577302,-0.003106167666772311,0.0038773638455052387,0.0,6.227549028249413,0.08670370370370371,0.0,4.315000000000001,0.0500721274487685,4.315000000000001,15.532996632996635,0.0
2.8833333333333333,-0.022485004319910656,1.845732208089208,10.351576484384704,-0.001199735883526648,-0.002948327374606505,0.0037198537799310065,0.0,6.300382391811429,0.08729629629629629,0.0,4.34,0.05000764673981457,4.34,15.628013468013469,0.0
2.9,0.24920000000000006,1.2893,9.859700000000002,0.01055,0.00695,0.00329,0.0,6.373,0.088,0.0,4.365,0.049999999999999996,4.365,15.71,0.0
2.9166666666666665,-0.05199002892745639,1.4508403199344355,9.582638298276866,0.006329722094141525,-0.0020959067757318605,-0.00015630918445739712,0.0,6.446329484415625,0.08896296296296295,0.0,4.389999999999999,0.04999990037626192,4.389999999999999,15.802996632996631,0.0
2.933333333333333,0.22994008986990236,1.3747920739087844,9.743828999618811,-0.005171223933358809,-0.007499806395306073,-0.0010810241307305755,0.0,6.51968132812599,0.09003703703703705,0.0,4.414999999999999,0.04999998943818453,4.414999999999999,15.898013468013469,0.0
2.95,-0.0138,1.3728,9.887999999999998,-0.010200000000000002,0.00628,-0.00019000000000000006,0.0,6.593,0.091,0.0,4.440000000000001,0.05,4.440000000000001,15.980000000000002,0.0
2.966666666666667,0.034450774914953575,1.6476485480799865,9.454725634249883,-0.004650629067412358,-0.0067428822590812594,-0.0013484031873553005,0.0,6.668015365948525,0.09170370370370372,0.0,4.465,0.05000000013760211,4.465,16.072996632996635,0.0
2.9833333333333334,-0.1128030244453312,1.3506433189870604,9.792309273093753,0.008704011783266066,-0.0035577683497302224,-0.005060234982605396,0.0,6.743002711637976,0.0922962962962963,0.0,4.490000000000001,0.05000000001458818,4.490000000000001,16.16801346801347,0.0
3.0,0.37149999999999994,1.4010000000000002,9.581900000000001,-0.00517,-0.00327,-0.006850000000000002,0.0,6.818,0.093,0.0,4.515,0.05,4.515,16.25,0.0
3.0166666666666666,0.17281787938997015,1.2313516108974396,9.85427657888115,0.01095498197163673,0.0026196993875623547,0.001938364977855801,0.0,6.892915939222778,0.09396296296296297,0.0,4.54,0.049999999999809946,4.54,16.342996632996634,0.0
3.033333333333333,0.01962368262191439,1.4735301646435472,9.44542765087647,-0.002302936780803098,-0.003220352844433348,-0.007361811425931769,0.0,6.969355445980133,0.09503703703703704,0.0,4.565,0.04999999999997986,4.565,16.438013468013473,0.0
3.05,-0.3119,1.7495,9.6882,-0.00256,0.00502,-0.006619999999999999,0.0,7.045999999999999,0.09599999999999999,0.0,4.59,0.05,4.59,16.519999999999996,0.0
3.0666666666666664,0.1985045467464729,1.5686333103201084,9.877616440987184,-0.0032318739530406678,-0.0020461410026799895,0.0022158629235260858,0.0,7.122696488613506,0.09670370370370368,0.0,4.614999999999999,0.050000000000000266,4.614999999999999,16.612996632996627,0.0
3.0833333333333335,-0.3775839345610896,1.6558730346401003,10.184175196046413,-0.0014544491485292753,-0.0018978833916667582,0.009840966616440492,0.0,7.1996543987460795,0.09729629629629633,0.0,4.640000000000001,0.05000000000000003,4.640000000000001,16.70801346801347,0.0
3.1,0.024,1.7488000000000001,9.7207,0.005350000000000001,-0.004280000000000001,-0.00744,0.0,7.277,0.098,0.0,4.665000000000001,0.05,4.665000000000001,16.79,0.0
3.1166666666666667,0.0548347206013185,1.0538872728954727,10.040879405658098,0.003653611881601665,0.00450490507136936,-0.0012894179070111053,0.0,7.355381860153454,0.09896296296296297,0.0,4.69,0.05000000000000002,4.69,16.882996632996633,0.0
3.1333333333333333,0.07204864331685124,1.291140904073327,9.564519300403296,0.002023379575238814,-0.00224725677398993,-0.00405098184000698,0.0,7.433970972969681,0.10003703703703705,0.0,4.715,0.05,4.715,16.978013468013465,0.0
3.15,0.0335,1.6600999999999997,9.9971,-0.00559,-0.0008299999999999996,-0.00404,0.0,7.513,0.101,0.0,4.74,0.049999999999999996,4.74,17.06,0.0
3.1666666666666665,-0.047145965804241845,1.513044076317458,9.461079047737375,0.006965760562318539,0.0003896841461288559,0.0033538128636525126,0.0,7.591947871397307,0.10170370370370367,0.0,4.764999999999999,0.05,4.764999999999999,17.152996632996633,0.0
3.183333333333333,0.12222172871669305,1.539967971826323,9.986332793447428,0.003189488527486092,0.0030758618344176435,-0.0005352996365897809,0.0,7.6719908008348225,0.10229629629629626,0.0,4.790000000000001,0.05000000000000001,4.790000000000001,17.248013468013472,0.0
3.2,0.2962,1.3798,10.1405,-0.00802,-0.004049999999999999,0.0002800000000000001,0.0,7.752,0.103,0.0,4.815,0.05000000000000001,4.815,17.33,0.0
3.216666666666667,0.2561963735239646,1.6352199917862569,10.176341884336349,0.00344833359230382,0.0017459953536616897,-0.0029859101922194956,0.0,7.832581470416543,0.10396296296296297,0.0,4.84,0.0500000000000004,4.84,17.422996632996636,0.0
3.2333333333333334,0.10209383988962648,1.5381326788610914,9.562182688122116,-0.003116777178975469,0.00048773309963870014,0.004726066879166171,0.0,7.914022555951144,0.10503703703703704,0.0,4.865000000000001,0.050000000000003667,4.865000000000001,17.51801346801347,0.0
3.25,-0.0746,1.2786,8.9665,0.010680000000000004,-0.004059999999999999,-0.01338,0.0,7.995,0.106,0.0,4.889999999999999,0.05,4.889999999999999,17.599999999999998,0.0
3.2666666666666666,-0.14793216924948155,1.2721855741366817,10.304296692750555,0.00045516305418902194,-0.004084023900867905,0.004344425562495209,0.0,8.076549028507046,0.10670370370370372,0.0,4.915000000000001,0.04999999999971936,4.915000000000001,17.692996632996632,0.0
3.283333333333333,0.12851596897159331,1.3471243845957541,9.607912117253417,0.0017575594210552932,-0.0015053667135556423,-0.004375639398162471,0.0,8.15938239424152,0.1072962962962963,0.0,4.9399999999999995,0.049999999997352836,4.9399999999999995,17.78801346801347,0.0
3.3,-0.0696,1.3231,9.9692,0.0023300000000000005,0.0007799999999999999,0.00848,0.0,8.241999999999999,0.10800000000000001,0.0,4.965,0.05,4.965,17.87,0.0
3.3166666666666664,0.017875644580989097,1.274357666589422,9.78204145315842,-0.0029330514918754283,-0.003686024458644971,0.003176617760589698,0.0,8.32532929789128,0.10896296296296296,0.0,4.989999999999999,0.050000000203187005,4.989999999999999,17.96299663299663,0.0
3.3333333333333335,-0.24930722717393378,1.8077091701101018,9.763811087069623,-0.0024903177391462127,-0.0023340843372000753,-0.002093512979960293,0.0,8.408679568745468,0.11003703703703702,0.0,5.015,0.050000001916550164,5.015,18.058013468013463,0.0
3.35,-0.1269,1.6639,9.682,0.006240000000000001,0.0009500000000000003,-0.00655,0.0,8.492,0.111,0.0,5.040000000000001,0.05000000000000001,5.040000000000001,18.14,0.0
3.3666666666666667,-0.014664137022021073,1.705767518827628,10.196757887215789,-0.00025662367702579424,-0.0005698235955379269,0.002023945400268679,0.0,8.577150409316305,0.11170370370370358,0.0,5.065,0.04999985289288761,5.065,18.232996632996635,0.0
3.3833333333333333,-0.41592793949048906,1.2792957149472532,9.633201585075032,-0.00022344220504456232,-0.0017242398204373019,-0.0004939260735282405,0.0,8.66120242663315,0.11229629629629496,0.0,5.090000000000001,0.049998612420329464,5.090000000000001,18.32801346801347,0.0
3.4,0.0144,1.736,9.788899999999998,0.0041400000000000005,0.0043,0.0019399999999999995,0.0,8.747,0.11299999999999999,0.0,5.114999999999999,0.05,5.114999999999999,18.41,0.0
3.4166666666666665,-0.23687377396905102,1.5100068503575113,9.679563017429015,0.002387852917788237,0.0020549742947660486,-0.0008345690365656501,0.0,8.831922505251244,0.1139629629630657,0.0,5.139999999999999,0.050106505346185735,5.139999999999999,18.50299663299663,0.0
3.433333333333333,0.27548356643334543,1.3464339488171664,9.699456133419552,-0.006014562845644859,-0.004661841221779176,-0.004881787563384848,0.0,8.918356141447326,0.11503703703800598,0.0,5.165,0.04889349465381319,5.165,18.59801346801347,0.0
3.4499999999999997,0.21560000000000967,1.8267999999999829,9.94880000000001,0.0014500000000002428,0.0022599999999998142,0.006120000000000002,0.0,9.005,0.11599999999999999,0.0,5.19,0.049000000000000016,5.19,18.68,0.0
3.466666666666667,0.2561320461729013,1.5455394889971357,9.475013790480602,-0.004443703616525046,-0.0008752695189255925,-0.005023370334365421,0.0,9.091696529522986,0.11670370362933212,0.0,5.215,0.04900138757974575,5.215,18.77299663299663,0.0
3.4833333333333334,-0.3159889730610712,1.8619105266169267,9.91254300436578,0.006485460970448851,0.004254321425740748,-0.0023592854431723786,0.0,9.178654869205824,0.11729629559479027,0.0,5.240000000000001,0.04900014710782171,5.240000000000001,18.86801346801347,0.0
3.5,-0.28239999999999993,1.2974,9.966099999999999,0.0006999999999999999,0.0016199999999999995,0.0037099999999999998,0.0,9.266,0.11799999999999997,0.0,5.265,0.049,5.265,18.949999999999996,0.0
3.5166666666666666,-0.06684247002399463,1.3123401527522958,9.435660082019094,0.008482083964813801,-0.010612435185269144,0.0017858022282082602,0.0,9.354345675662296,0.11896301680790317,0.0,5.290000000000001,0.048999998029006044,5.290000000000001,19.042996632996633,0.0
3.533333333333333,-0.11737447762770639,1.4372744101605854,9.915805002053059,0.005476005425906156,0.002616091948453503,0.0007703743461075423,0.0,9.44259262761187,0.12003754492644625,0.0,5.3149999999999995,0.04899999928327493,5.3149999999999995,19.138013468013472,0.0
3.55,0.2479,1.6973999999999996,9.7836,-0.0005399999999999995,-0.00114,0.0023,0.0,9.531999999999998,0.12099999999999998,0.0,5.339999999999999,0.049,5.339999999999999,19.22,0.0
3.5666666666666664,-0.25949856361453855,1.788771399821667,9.751405346212117,0.00505046864692306,-0.007159434124071237,-0.0015111465921226566,0.0,9.620923179863466,0.1216647200413608,0.0,5.364999999999999,0.04900003941987953,5.364999999999999,19.31299663299663,0.0
3.5833333333333335,0.07227373848281247,1.7113313319342154,9.84849106477821,0.006759944006829793,0.00268362641249218,0.004876777379826866,0.0,9.710986443505323,0.1218915480285083,0.0,5.390000000000001,0.04900037180113646,5.390000000000001,19.408013468013465,0.0
3.6,-0.0372,1.5685,9.9186,-0.004549999999999999,0.00422,0.007020000000000001,0.0,9.801,0.123,0.0,5.415000000000001,0.048999999999999995,5.415000000000001,19.490000000000002,0.0
3.6166666666666667,0.0017543788072023163,1.3573515615362766,9.630065556699815,-0.008995828781533672,0.002970518790687229,0.00025581195019871734,0.0,9.891716547631088,0.12370559917278331,0.0,5.440000000000001,0.048971461978215614,5.440000000000001,19.582996632996636,0.0
3.6333333333333333,0.27613596422118714,1.6055597879909602,9.879782617046965,-0.005474725629896102,0.0017409779997208637,0.001369098955576857,0.0,9.982222274534651,0.12429649724834757,0.0,5.464999999999999,0.04869377965689204,5.464999999999999,19.67801346801347,0.0
3.65,-0.324,1.0617999999999999,9.901899999999998,0.00444,-0.005069999999999999,-0.0008299999999999996,0.0,10.074,0.125,0.0,5.489999999999999,0.047999999999999994,5.489999999999999,19.759999999999998,0.0
3.6666666666666665,0.17222089979145527,1.291342492357114,9.625568640158328,0.008002161776022924,-0.0009746888519979083,0.001701072426013895,0.0,10.16555559448876,0.12596296034500948,0.0,5.514999999999999,0.04799482168535701,5.514999999999999,19.852996632996632,0.0
3.683333333333333,0.17054742463869035,1.3523340144646363,10.12119419322074,-0.002481180554651103,-0.0018272537659436334,-0.0032255323285784784,0.0,10.25838308970375,0.12703703676044736,0.0,5.540000000000001,0.047999452905332834,5.540000000000001,19.94801346801347,0.0
3.6999999999999997,-0.41190000000001525,1.6869000000000163,9.96910000000001,0.0003000000000002506,-0.0007899999999998943,-0.004879999999999798,0.0,10.351,0.128,0.0,5.565,0.048000000000000015,5.565,20.03,0.0
3.716666666666667,-0.10911175374797459,1.6150321200602547,9.749594524222598,0.007946258496315282,-0.00019023438865887186,0.005062566430547326,0.0,10.44432933880118,0.12870370363294822,0.0,5.59,0.04799986004553005,5.59,20.122996632996635,0.0
3.7333333333333334,0.32803600476928335,1.5836915173828816,10.25224371335382,-0.008774256506296433,0.005075563358225102,0.004584825453705351,0.0,10.537680039208574,0.12929629559517367,0.0,5.615000000000001,0.04799861317844364,5.615000000000001,20.218013468013467,0.0
3.75,-0.09940000000000002,1.7011,9.059299999999999,-0.00073,-7.000000000000018e-05,-0.00255,0.0,10.631,0.13,0.0,5.64,0.047999999999999994,5.64,20.3,0.0
3.7666666666666666,0.257392517445824,1.41180258401869,9.873299526383564,-0.002205905700806673,-0.0019163544997291239,0.006338980005889459,0.0,10.726114224567517,0.13096301680789624,0.0,5.665,0.04810650535089467,5.665,20.392996632996635,0.0
3.783333333333333,0.22781845573753245,1.619755548476603,9.649853634913967,0.0016777059279933276,0.009258271299884123,-0.001441429487423983,0.0,10.819824078845249,0.13203754492642708,0.0,5.69,0.04689349479036914,5.69,20.488013468013467,0.0
3.8,-0.1308,1.7765000000000002,9.874399999999998,0.0073599999999999985,-0.003299999999999999,-0.0025499999999999997,0.0,10.916,0.133,0.0,5.714999999999999,0.04699999999999999,5.714999999999999,20.57,0.0
3.8166666666666664,-0.22481532147183778,1.6911970504067162,10.228278003708676,0.0028483577765771764,0.0019438551554631905,0.0025922056018295643,0.0,11.010898000241747,0.13366472004279156,0.0,5.739999999999999,0.04700137701784855,5.739999999999999,20.66299663299663,0.0
3.8333333333333335,0.15223907829466313,1.5000802744466661,9.89562460893237,0.007964053528020747,-0.00043583632613059697,0.0014619752930801826,0.0,11.10735354349835,0.13389154804200382,0.0,5.765,0.047000047483185696,5.765,20.758013468013466,0.0
3.85,-0.08880000000000002,1.6486000000000003,9.7955,-0.00244,-0.0011100000000000007,-0.0029,0.0,11.204,0.135,0.0,5.790000000000001,0.047,5.790000000000001,20.84,0.0
3.8666666666666667,0.12401504298022377,1.3196144029941308,10.365736899650434,-0.0048806800967430425,0.00310633305555002,-0.007582132026718918,0.0,11.300696563369751,0.13570559813692115,0.0,5.815000000000001,0.047007644837852434,5.815000000000001,20.932996632996637,0.0
3.8833333333333333,-0.20123706700430927,1.5762109373197972,9.57491838694663,0.0029430953404077148,-0.0009542526628215055,0.009967243223237733,0.0,11.397654872794158,0.13629648747763512,0.0,5.839999999999999,0.04707212738318236,5.839999999999999,21.02801346801347,0.0
3.9,0.2438,1.6917999999999997,9.4978,-0.0019799999999999996,0.0016399999999999997,0.0022899999999999995,0.0,11.494999999999997,0.13699999999999998,0.0,5.865,0.046,5.865,21.11,0.0
3.9166666666666665,-0.33036838880092545,1.4865825892480815,10.081299241972344,5.773596905883616e-05,-0.005031950336636382,0.004973603964810209,0.0,11.593345675615545,0.1379637103077936,0.0,5.889999999999998,0.04601931593255646,5.889999999999998,21.20299663299663,0.0
3.933333333333333,0.05849743282312488,1.325101106020735,10.32836694541067,-0.006688413316503002,-8.93098651851396e-05,-0.00040755039860160524,0.0,11.69159262760691,0.13904411074277215,0.0,5.915,0.0460019493150099,5.915,21.29801346801347,0.0
3.9499999999999997,-0.4033999999999988,1.360399999999996,9.843000000000046,-0.0007599999999999881,-0.007050000000000802,0.004899999999999941,0.0,11.790999999999999,0.14,0.0,5.94,0.046000000000000006,5.94,21.38,0.0
3.966666666666667,-0.266642291839478,1.8134094999127002,9.846356356820326,0.009192431090705212,3.2006965568330727e-05,0.004521009652245487,0.0,11.889923179863532,0.13986443531680817,0.0,5.965,0.04600761999126731,5.965,21.472996632996633,0.0
3.9833333333333334,-0.14681540805483428,1.4152734888483889,9.607094617206196,0.002033330992662487,0.0010275580201292694,0.00018109721610042723,0.0,11.989986443505332,0.1410265940146152,0.0,5.990000000000001,0.04607212410520351,5.990000000000001,21.568013468013476,0.0
4.0,-0.38560000000000005,1.4586,10.471900000000002,0.004559999999999999,-0.0018399999999999996,-0.007319999999999999,0.0,12.09,0.142,0.0,6.015000000000001,0.045000000000000005,6.015000000000001,21.65,0.0
4.016666666666667,-0.03424565275028989,1.7623098443301954,9.403050271962941,-0.002584882676621552,-0.005650351994075065,-0.005607184783121008,0.0,12.190716547631089,0.14270363884163378,0.0,6.040000000000001,0.045019365945471256,6.040000000000001,21.742996632996636,0.0
4.033333333333333,0.36738762850826684,1.61624481959607,10.351037604705326,0.006304552406605787,-0.002227141152820499,0.0029642770530154162,0.0,12.291222274534649,0.1432944152684184,0.0,6.0649999999999995,0.04500242073987184,6.0649999999999995,21.838013468013468,0.0
4.05,0.4557999999999999,1.3493999999999997,9.4443,0.0007300000000000002,-0.005690000000000001,-0.004170000000000001,0.0,12.393,0.144,0.0,6.09,0.045,6.09,21.920000000000005,0.0
4.066666666666666,-0.038101413253495225,1.296537279114675,10.20176155683019,-0.00531478062390256,0.004313577485488136,0.007285217771728166,0.0,12.49455559448876,0.14510845074776357,0.0,6.114999999999999,0.044971435487541206,6.114999999999999,22.012996632996632,0.0
4.083333333333333,-0.17311652082341367,1.5848734198933987,10.149172168717685,-0.000651125226928316,-0.0008492152303865358,-0.0024217576734457467,0.0,12.597383089703747,0.1453352701689614,0.0,6.14,0.044693778746105375,6.14,22.108013468013468,0.0
4.1,-0.2516999999999999,1.6540000000000001,9.818199999999997,0.0035200000000000006,-0.00036000000000000013,0.009100000000000002,0.0,12.7,0.146,0.0,6.165,0.044,6.165,22.190000000000005,0.0
4.116666666666666,0.19193921864972296,1.8102556322069774,9.310112212646594,-0.002004315988591256,-0.0017853030548932553,0.004810999533571722,0.0,12.803329338801175,0.14696320496271936,0.0,6.189999999999999,0.04399467440801952,6.189999999999999,22.28299663299663,0.0
4.133333333333333,-0.06154877459532731,1.4142584368406048,9.725512243695965,0.0015049267044095834,-0.005870661676524129,-0.0028420918490306224,0.0,12.90668003920857,0.14804405647759752,0.0,6.214999999999999,0.04399806337615402,6.214999999999999,22.378013468013467,0.0
4.15,-0.007500000000000003,1.527,10.125,0.00143,-0.00246,0.0053300000000000005,0.0,13.010000000000002,0.149,0.0,6.239999999999999,0.044,6.239999999999999,22.46,0.0
4.166666666666667,-0.26467807432889845,1.6168924104266227,10.26196315370301,0.0022884452528572335,-0.001355276853682527,0.006567786588475555,0.0,13.115114224567517,0.148864489576749,0.0,6.265,0.0441065153285468,6.265,22.552996632996635,0.0
4.183333333333334,-0.36965215363752957,1.5317405297454563,10.385911543568803,0.011244561604940447,-0.004225064299592067,-0.0031518917764088794,0.0,13.21882407884525,0.15002709930967859,0.0,6.29,0.04289352210356622,6.29,22.64801346801347,0.0
4.2,-0.027700000000000006,1.7937000000000003,9.4268,-0.01053,0.005300000000000001,0.0030999999999999995,0.0,13.325000000000001,0.151,0.0,6.315000000000001,0.043,6.315000000000001,22.730000000000004,0.0
4.216666666666667,-0.19481710823761142,1.1995392189214042,9.778557098974693,0.006075138105169631,-0.0007057363602765297,0.00347151041013505,0.0,13.42989800024175,0.15166485998950946,0.0,6.340000000000001,0.04299933883520005,6.340000000000001,22.822996632996638,0.0
4.233333333333333,0.07192282299505125,1.7007239533777223,9.457641323605692,-0.0006293805332029047,0.0035709182848989696,0.003635071302521441,0.0,13.536353543498347,0.15189159887063639,0.0,6.364999999999999,0.04298082253077557,6.364999999999999,22.918013468013463,0.0
4.25,-0.05059999999999999,1.4976000000000003,9.109000000000002,-0.013070000000000003,-0.00203,0.00489,0.0,13.643,0.153,0.0,6.390000000000001,0.043000000000000003,6.390000000000001,23.0,0.0
4.266666666666667,0.27020888280388916,1.723353831213903,9.855256447868948,0.009716751789443458,0.0029072905826299693,-0.0017276198227187184,0.0,13.749696563369755,0.1537028039443491,0.0,6.415,0.041927723542169594,6.415,23.09299663299663,0.0
4.283333333333333,-0.3258568799715211,1.363917224789421,10.096799795528161,-0.0033078703809271554,-0.006077181374694603,0.0010121206026307943,0.0,13.856654872794156,0.15427013316438445,0.0,6.44,0.041990965614917816,6.44,23.188013468013466,0.0
4.3,-0.16580000000000006,1.3466000000000002,9.752700000000003,-0.0022299999999999998,-0.00407,-0.004900000000000001,0.0,13.964000000000002,0.15500000000000003,0.0,6.465,0.042,6.465,23.27,0.0
4.316666666666666,0.24150447673341516,1.239553648880209,10.239826495745058,-0.002436396625238195,0.0013421693510556757,-0.0031754995025057536,0.0,14.072345675615544,0.15572730652399866,0.0,6.49,0.042106594411803394,6.49,23.362996632996627,0.0
4.333333333333333,0.0796767948959811,1.7571052990781277,9.46523634363891,-0.001582834045891957,-0.004514565969009608,0.001106649429679207,0.0,14.18059262760691,0.15627273085575666,0.0,6.514999999999999,0.04089340560205523,6.514999999999999,23.45801346801347,0.0
4.35,-0.1005,1.6253,10.215900000000001,0.0032399999999999994,0.004579999999999999,0.004569999999999999,0.0,14.290000000000001,0.15699999999999997,0.0,6.539999999999999,0.041,6.539999999999999,23.540000000000003,0.0
4.366666666666666,-0.06242411184699499,1.100945120234959,9.990379151223433,-0.004617076598189708,0.002270247401436586,-0.0019033329558942427,0.0,14.398923179863525,0.15772727268059186,0.0,6.564999999999998,0.041009033423294323,6.564999999999998,23.632996632996626,0.0
4.383333333333333,-0.3631315136070622,1.8220943908106004,9.158683706191077,0.00025046034722359464,-0.008260020025556676,-0.0035114928755606055,0.0,14.508986443505325,0.15827272726777702,0.0,6.59,0.04107226738598132,6.59,23.728013468013465,0.0
4.4,-0.4730999999999999,1.3722,9.7994,0.00085,-0.00436,0.0003700000000000001,0.0,14.619,0.159,0.0,6.615,0.039999999999999994,6.615,23.81,0.0
4.416666666666667,0.2504673153187708,1.5350089306580679,9.281382833273094,0.004124668529622083,-0.004290176880017452,-0.003634403393407639,0.0,14.729716547631089,0.15972727272743245,0.0,6.64,0.0400198737897693,6.64,23.902996632996633,0.0
4.433333333333334,0.15881313067274397,1.146037235527351,9.421534448100639,-0.004648605492197263,-0.000443528120548111,0.007123451735549168,0.0,14.84022227453465,0.16027272727363226,0.0,6.665,0.040007229169680934,6.665,23.99801346801347,0.0
4.45,-0.7818,1.3708,10.0409,-0.008590000000000002,-0.0051400000000000005,-0.006530000000000002,0.0,14.952000000000002,0.161,0.0,6.69,0.04000000000000001,6.69,24.080000000000002,0.0
4.466666666666667,-0.2565381048706592,1.4973594536992851,9.213782892398312,-0.003045901811178862,0.0031000359537055973,-0.001331943550548156,0.0,15.063555594488767,0.16172727265833414,0.0,6.715000000000001,0.03930604648743079,6.715000000000001,24.17299663299664,0.0
4.483333333333333,-0.04940842679017674,1.5886063466434293,9.273898091165679,0.007764360447994201,0.006963638561466945,-0.0010408969951857185,0.0,15.17638308970375,0.16227272662246825,0.0,6.739999999999998,0.03902714709835205,6.739999999999998,24.268013468013468,0.0
4.5,0.2825,1.4918,10.528200000000002,0.00219,-0.0013,-0.00115,0.0,15.289,0.16300000000000003,0.0,6.765000000000001,0.039,6.765000000000001,24.35,0.0
4.516666666666667,-0.0406349445227549,1.4771058503176269,9.793777144409232,0.008233427949053811,0.0020885908416584473,-0.012045132676430611,0.0,15.402329338801183,0.16372732263868414,0.0,6.790000000000002,0.03910617301402593,6.790000000000002,24.44299663299664,0.0
4.533333333333333,-0.016952875329403455,1.4516566835171452,9.504895696099227,-0.002842803300154674,0.0007069873963208332,-0.006589212406214459,0.0,15.51568003920857,0.1642731980593441,0.0,6.814999999999999,0.03789382717899582,6.814999999999999,24.538013468013467,0.0
4.55,-0.24660000000000004,1.2843,10.179899999999998,0.0008800000000000004,0.007170000000000001,0.0072,0.0,15.629,0.165,0.0,6.84,0.038,6.84,24.62,0.0
4.566666666666666,-0.12663613472964302,1.3656086200383744,9.206731221992937,0.002997770399901616,0.0022950095005626206,-0.0015708876026032327,0.0,15.744114224567513,0.16569113693437573,0.0,6.864999999999999,0.037972839505938626,6.864999999999999,24.712996632996635,0.0
4.583333333333333,0.02281979490506759,1.3734066388013964,10.17476978485019,0.0032048584937949013,-0.0006599209051769733,0.0038640124275733244,0.0,15.857824078845246,0.16589484137537974,0.0,6.889999999999999,0.0376938271605329,6.889999999999999,24.808013468013463,0.0
4.6,0.36849999999999994,1.7342000000000002,9.6616,0.006879999999999999,0.006000000000000001,-0.002450000000000001,0.0,15.974,0.167,0.0,6.915000000000001,0.037,6.915000000000001,24.89,0.0
4.616666666666666,0.14174093322922762,1.39266435300247,9.362636651211837,-0.007862160440874013,-0.001497321101336655,0.004118497701377186,0.0,16.08889800024174,0.16766731465103157,0.0,6.939999999999999,0.03700246913084469,6.939999999999999,24.982996632996624,0.0
4.633333333333333,-0.04075641371558133,1.5196923798322255,9.65105414646793,0.00793192045969355,0.0043287109145639935,-0.007231711082899372,0.0,16.205353543498347,0.1678986832027733,0.0,6.964999999999999,0.03707160489150458,6.964999999999999,25.078013468013463,0.0
4.65,-0.08449999999999996,1.4949,10.0203,-0.0013900000000000002,0.00999,0.002739999999999999,0.0,16.322,0.16899999999999998,0.0,6.99,0.036,6.99,25.16,0.0
4.666666666666667,-0.40044767137149945,1.2885812876552358,10.511748115429452,-0.00012175935540290246,0.004570653052391696,-0.012169225972124147,0.0,16.43869656336975,0.1688767594224096,0.0,7.014999999999999,0.03601728754027812,7.014999999999999,25.25299663299663,0.0
4.683333333333334,0.09685706853098856,1.6885436959931275,9.72626150568444,0.005862506466228126,-0.006311596053929462,-0.006671484704522972,0.0,16.555654872794157,0.17012518648343197,0.0,7.040000000000001,0.035982749908659364,7.040000000000001,25.348013468013466,0.0
4.7,-0.15690000000000004,1.633,9.512000000000002,-0.0031200000000000004,0.00047999999999999996,0.0009599999999999999,0.0,16.672999999999995,0.17,0.0,7.065000000000001,0.036000000000000004,7.065000000000001,25.43,0.0
4.716666666666667,-0.10831945285615698,1.4441500512673282,10.418087037115717,0.0023377856045948345,-2.2525867079899334e-05,-0.0016014864763344867,0.0,16.791345675615553,0.1709662709318225,0.0,7.090000000000002,0.03492579615223223,7.090000000000002,25.522996632996634,0.0
4.733333333333333,-0.5621130545669162,1.6205828322574325,9.715919441698125,-0.004115120527514187,0.0056705358340959,0.0073747853056592245,0.0,16.90959262760691,0.17213296945915732,0.0,7.114999999999999,0.03497301679466137,7.114999999999999,25.61801346801347,0.0
4.75,-0.06069999999999999,1.4214000000000002,9.348200000000002,0.00897,-0.0011800000000000005,0.00151,0.0,17.029,0.172,0.0,7.14,0.035,7.14,25.7,0.0
4.766666666666667,0.04128339107395535,1.4269852984990907,9.890692568336455,0.001971648295476157,0.010153630268914781,-0.006309379976551496,0.0,17.147923179863536,0.173098641493682,0.0,7.165000000000001,0.03392852046581503,7.165000000000001,25.792996632996637,0.0
4.783333333333333,-0.1495759324551528,1.6611709348095045,9.725666408564766,-0.0012489482498267963,-0.009372273757646246,-0.0032149284446994215,0.0,17.267986443505325,0.17330862879037065,0.0,7.189999999999999,0.03399753520096176,7.189999999999999,25.88801346801347,0.0
4.8,-0.1815,1.2944,9.839499999999997,0.0007800000000000003,0.0007099999999999997,-0.006530000000000001,0.0,17.388,0.174,0.0,7.215,0.03400000000000001,7.215,25.97,0.0
4.816666666666666,-0.4995890180217043,1.6151567983473207,10.21718607987473,-0.00028004041832761133,-0.0019265295679782312,0.009012959869861767,0.0,17.50871654763109,0.1746913617164756,0.0,7.24,0.033306868079178584,7.24,26.062996632996622,0.0
4.833333333333333,-0.028752588634907164,1.4978196249171971,10.362293350002965,-0.002332272523681025,-0.010553594557397062,-0.004936961713875384,0.0,17.629222274534648,0.17490126779396062,0.0,7.264999999999998,0.03303371993124593,7.264999999999998,26.158013468013465,0.0
4.85,-0.42440000000000005,1.4757,9.659799999999999,0.00893,0.0051400000000000005,0.00605,0.0,17.751,0.176,0.0,7.290000000000001,0.033,7.290000000000001,26.24,0.0
4.866666666666666,-0.08198249150401446,1.3411001054483014,9.857644861625483,0.0005139108696447226,-0.013600667496819067,-0.005055047284403543,0.0,17.872555594488755,0.17587399429646208,0.0,7.314999999999998,0.03230639761631886,7.314999999999998,26.332996632996633,0.0
4.883333333333333,-0.3627498958982273,1.7181280325524648,9.712540781859294,0.00522499613572263,0.006296585165136352,0.0013311352165347725,0.0,17.99538308970375,0.1770994143080579,0.0,7.339999999999998,0.0320336790214195,7.339999999999998,26.428013468013464,0.0
4.9,-0.126,1.4159,9.2772,-0.0052899999999999996,0.0031199999999999995,-0.0077399999999999995,0.0,18.117999999999995,0.177,0.0,7.365000000000001,0.031999999999999994,7.365000000000001,26.51,0.0
4.916666666666667,0.11769805213032822,1.863896486718497,9.813752621781143,0.005085607832647627,0.0012520194872889193,0.006347570335144988,0.0,18.24132933880118,0.1776849157930862,0.0,7.389999999999999,0.03130570215045664,7.389999999999999,26.602996632996636,0.0
4.933333333333334,-0.1106301884512325,1.426466288573205,9.500084287564281,-0.005000485295332686,-0.0017085094458463978,0.0026072871650629275,0.0,18.364680039208576,0.17790055094986187,0.0,7.414999999999999,0.031027113005477423,7.414999999999999,26.698013468013464,0.0
4.95,-0.058099999999999985,1.5389,10.0001,-0.0015600000000000002,0.00539,-0.0006800000000000003,0.0,18.488,0.179,0.0,7.440000000000001,0.031,7.440000000000001,26.780000000000005,0.0
4.966666666666667,-0.10781095454197587,1.6390953622035282,9.807545857717715,-0.000679537262445167,-0.0069299598190446735,0.0010663468616423852,0.0,18.61311422456752,0.17887660113875187,0.0,7.465,0.031105986193791485,7.465,26.872996632996635,0.0
4.983333333333333,-0.07481588764559081,1.354319781197303,9.866983169760807,-0.005675864537010833,0.001414623997991254,-0.001408524203418028,0.0,18.736824078845245,0.18012392021416077,0.0,7.490000000000001,0.029892060568483404,7.490000000000001,26.968013468013467,0.0
5.0,-0.2949,1.5586,10.164100000000001,-0.004200000000000001,-0.0008999999999999999,0.005930000000000002,0.0,18.863,0.18000000000000002,0.0,7.515,0.030000000000000002,7.515,27.05,0.0
5.016666666666667,-0.6327299266931704,1.4176205371864303,9.945409353576242,-0.004784333526123818,-0.006501480869353943,0.001188412946745478,0.0,18.987898000241753,0.18106326715800092,0.0,7.540000000000002,0.030108441692645423,7.540000000000002,27.142996632996635,0.0
5.033333333333333,0.2367995105311546,1.4682973097595577,9.460715620424896,-0.0006272936124440049,0.0005799941593558577,0.0007686805540198891,0.0,19.114353543498343,0.1809367695532627,0.0,7.5649999999999995,0.02889881319032838,7.5649999999999995,27.238013468013467,0.0
5.05,-0.18150000000000002,1.4136000000000002,10.1134,0.003830000000000001,0.010190000000000001,-0.00041,0.0,19.241000000000003,0.182,0.0,7.590000000000001,0.029000000000000005,7.590000000000001,27.32,0.0
5.066666666666666,-0.1951110084901849,1.3533801592691777,10.196559930858031,-0.001463360194542038,-0.01042344632410538,0.008325272287336878,0.0,19.367696563369744,0.18187353202414294,0.0,7.614999999999999,0.028308154256838643,7.614999999999999,27.412996632996627,0.0
5.083333333333333,-0.09306307026497199,1.668116841763139,9.643074309300065,-0.002990967460797344,0.0009466416654544566,-0.0033528635737758586,0.0,19.494654872794154,0.18309936766807303,0.0,7.639999999999998,0.028033856300448072,7.639999999999998,27.508013468013463,0.0
5.1,0.019599999999999992,1.5453,9.952899999999998,-0.00868,-0.006649999999999999,0.00858,0.0,19.622,0.183,0.0,7.665,0.028,7.665,27.589999999999996,0.0
5.116666666666666,0.3209297032243296,0.9258885963747664,9.646248853340925,-0.00021621895886973048,0.0020047676695021804,-0.0015359193492133108,0.0,19.75034567561554,0.18368473254768775,0.0,7.6899999999999995,0.02730639487471622,7.6899999999999995,27.682996632996627,0.0
5.133333333333333,0.16745965759210873,1.7514759203860857,9.520880742609009,-0.00237596847404628,-0.0020374488373370316,0.008087880193406083,0.0,19.87859262760691,0.18389881653962947,0.0,7.714999999999999,0.02703366972971013,7.714999999999999,27.77801346801347,0.0
5.15,0.001600000000000018,1.8055999999999999,9.903800000000002,0.0025499999999999997,-0.00402,0.00531,0.0,20.007999999999996,0.185,0.0,7.739999999999999,0.026999999999999996,7.739999999999999,27.859999999999996,0.0
5.166666666666667,0.17596513330358848,1.6898612505915023,10.140722102146288,-0.004615224694867049,0.001579061011946116,0.006530706912667748,0.0,20.136923179863537,0.18500973307951607,0.0,7.764999999999998,0.026306400893108324,7.764999999999998,27.952996632996626,0.0
5.183333333333334,0.19040060319502672,1.2422316135424878,9.342475449217208,0.002784735262513275,0.00027594619651172465,-0.005754618674233335,0.0,20.26698644350533,0.18530560578834504,0.0,7.79,0.026033703833862207,7.79,28.04801346801347,0.0
5.2,-0.023600000000000013,1.3594999999999997,9.973700000000001,-0.0049900000000000005,0.00687,-0.004350000000000001,0.0,20.397000000000002,0.18600000000000003,0.0,7.815000000000001,0.026,7.815000000000001,28.13,0.0
5.216666666666667,0.4331767479217969,0.8938437531592897,10.250193637208064,0.003612972116438589,-0.004807162540781917,0.001480410874062079,0.0,20.52771654763109,0.18589814751229178,0.0,7.840000000000001,0.025303802959273144,7.840000000000001,28.222996632996633,0.0
5.233333333333333,-0.06281118559487409,1.9825914304026147,10.383838468551382,-0.0005279171408334426,-0.008283523363361234,0.004863447358945268,0.0,20.658222274534648,0.18710185195784435,0.0,7.865,0.025009198998498017,7.865,28.318013468013476,0.0
5.25,0.37890000000000007,1.7117,9.2439,0.00317,-0.005260000000000001,3.000000000000008e-05,0.0,20.790000000000003,0.187,0.0,7.890000000000001,0.025,7.890000000000001,28.4,0.0
5.266666666666667,0.05820270465033597,1.1810207213342934,10.209747522189181,0.005003412393470084,-0.001452640745285071,-0.008606327881625242,0.0,20.921555594488765,0.1876944309842091,0.0,7.915000000000001,0.02392544177829912,7.915000000000001,28.49299663299664,0.0
5.283333333333333,-0.01623186213273555,1.370487589775344,10.379491838099039,-0.002818280854618267,0.004487931840052853,-0.0003583062389322779,0.0,21.054383089703745,0.18799061376938703,0.0,7.94,0.02397288792024499,7.94,28.588013468013465,0.0
5.3,-0.16350000000000003,1.0656000000000003,8.999,0.007770000000000001,-0.0009200000000000007,-0.0029499999999999995,0.0,21.187,0.188,0.0,7.965,0.024,7.965,28.67,0.0
5.316666666666666,-0.10495343327317652,1.7379725193283015,9.919952149666242,-0.0013765079517654825,-5.675024267559424e-07,-0.0010834690218666256,0.0,21.320329338801177,0.18907456066110534,0.0,7.989999999999998,0.02293560881143042,7.989999999999998,28.76299663299663,0.0
5.333333333333333,0.23120899933075836,1.1752120907588093,9.406011488473169,0.0012043669957331443,0.0010942044982446685,-0.005815656297696731,0.0,21.45368003920857,0.18902711233926184,0.0,8.015,0.023064391188574705,8.015,28.858013468013464,0.0
5.35,-0.1867,1.2313,9.8595,0.0045,-0.003360000000000001,0.005169999999999998,0.0,21.587,0.189,0.0,8.04,0.022,8.04,28.94,0.0
5.366666666666666,-0.06177997781875379,1.463104914624961,10.054199823174189,0.002975381721758097,0.0012831421316449815,0.0018367886018275021,0.0,21.722114224567505,0.19006439111623857,0.0,8.064999999999998,0.022027112079397823,8.064999999999998,29.032996632996635,0.0
5.383333333333333,-0.1258095792745574,1.7762920341744484,9.240216433235256,0.0022510203880386727,0.01001578920860701,3.791021607356519e-05,0.0,21.85582407884525,0.18993560816058996,0.0,8.09,0.02207455821833175,8.09,29.12801346801346,0.0
5.4,-0.37329999999999997,1.2846,9.751999999999999,-0.0018399999999999998,-0.00103,0.004399999999999999,0.0,21.991999999999997,0.19099999999999998,0.0,8.114999999999998,0.021,8.114999999999998,29.21,0.0
5.416666666666667,-0.03364632964868796,1.2453322551523356,9.79470550189812,-0.0031654141563585932,-0.006203595067250297,-0.004094812035032452,0.0,22.12689800024175,0.1909729378488387,0.0,8.139999999999999,0.020990801260103133,8.139999999999999,29.30299663299663,0.0
5.433333333333334,0.033574543581193404,1.6814329447036886,9.91341307139273,-0.0006527575655339377,0.005768112173833112,0.0023338450458103904,0.0,22.263353543498347,0.1909259127269441,0.0,8.165,0.020696199479967734,8.165,29.398013468013467,0.0
5.45,-0.23759999999999998,1.0676,9.8476,-0.0026500000000000004,-0.0013000000000000004,0.00226,0.0,22.400000000000002,0.192,0.0,8.19,0.02,8.19,29.480000000000004,0.0
5.466666666666667,-0.12886994912209532,1.6257201328542135,9.589309395194391,0.00467668970385817,0.0034404272982642868,-0.007494727089964013,0.0,22.53669656336975,0.19197305076896945,0.0,8.215000000000002,0.01996610893926607,8.215000000000002,29.57299663299664,0.0
5.483333333333333,0.47892150797795224,1.645000444804091,9.94339395248618,0.0019836052065256983,0.002588033973462233,-0.010065056716093887,0.0,22.673654872794156,0.19192579975408836,0.0,8.24,0.01969183309981854,8.24,29.66801346801347,0.0
5.5,-0.14240000000000003,1.5691000000000002,9.623600000000001,0.0004900000000000004,-0.0011400000000000006,-0.005980000000000001,0.0,22.811000000000003,0.19300000000000003,0.0,8.265,0.019,8.265,29.75,0.0
5.516666666666667,-0.22740680225242485,1.5907397065513158,9.650788673648886,-0.0012168203262458103,0.008184601494268768,-0.0012475896461645406,0.0,22.949345675615554,0.19298274986173336,0.0,8.290000000000001,0.019101882266821805,8.290000000000001,29.842996632996634,0.0
5.533333333333333,0.1291610877832838,1.5413635356530424,9.821750513799595,-0.0007548193663733348,-0.00031915340496519216,-0.0007098196308781904,0.0,23.087592627606913,0.19301728753530198,0.0,8.314999999999998,0.01789811773291028,8.314999999999998,29.938013468013466,0.0
5.55,0.3476000000000001,1.5631,9.3749,0.0012899999999999997,0.0017300000000000002,0.010070000000000003,0.0,23.227000000000004,0.193,0.0,8.34,0.018,8.34,30.020000000000003,0.0
5.566666666666666,-0.1222274423384009,1.2804804721391838,9.770309401554227,-0.0017224772054380963,-0.006611168408147855,0.005625927209551579,0.0,23.36592317986353,0.19407160489166478,0.0,8.364999999999998,0.017308166918774622,8.364999999999998,30.112996632996627,0.0
5.583333333333333,-0.07754535938107117,1.412147890541654,10.014834056604471,0.0008885790104221661,-0.0030113391487923196,0.003425580583119469,0.0,23.505986443505325,0.19400246913175087,0.0,8.389999999999999,0.01703389123610923,8.389999999999999,30.208013468013466,0.0
5.6,-0.07770000000000002,1.3239999999999998,9.853199999999998,-0.00614,0.0009199999999999992,0.00375,0.0,23.646,0.194,0.0,8.415000000000001,0.017000000000000005,8.415000000000001,30.29,0.0
5.616666666666666,0.27886764784313617,1.2142095757776659,9.654786082578942,-0.008494127380984,0.011693548226931765,0.00112888252319583,0.0,23.786716547631084,0.19469382709150623,0.0,8.44,0.016303787058893078,8.44,30.382996632996633,0.0
5.633333333333333,0.12220503002985879,1.5208340825663655,9.191107319367337,0.006963245450514352,0.002745363796798065,0.0008813293042912817,0.0,23.92722227453465,0.19497283885485037,0.0,8.465,0.016009071768448586,8.465,30.47801346801347,0.0
5.65,-0.18909999999999993,1.5896999999999997,9.2907,0.005139999999999999,0.0004000000000000001,0.00103,0.0,24.069,0.195,0.0,8.49,0.016,8.49,30.559999999999995,0.0
5.666666666666667,0.2733059594375884,1.308857035199037,10.23476681128616,0.002629219556825328,0.0006896595167375226,0.004690163033733865,0.0,24.210555594488763,0.19489387715405954,0.0,8.515,0.014935187627864764,8.515,30.652996632996633,0.0
5.683333333333334,-0.15875564149161867,1.6678837388364451,9.511459314036207,0.004180603706261623,0.006822765081831598,-0.0010961450380370182,0.0,24.35338308970375,0.19610664440104014,0.0,8.540000000000001,0.015064815073780193,8.540000000000001,30.74801346801347,0.0
5.7,-0.041000000000000016,1.282,10.052900000000001,0.0064600000000000005,0.0047,0.00023999999999999992,0.0,24.496000000000002,0.19600000000000004,0.0,8.565,0.014000000000000002,8.565,30.83,0.0
5.716666666666667,-0.06048228066763949,1.2438561993707906,9.946686990665471,0.0022610200912303773,9.370239584957112e-05,0.0031175254980664404,0.0,24.639329338801186,0.19599096522123063,0.0,8.590000000000002,0.013990740737392548,8.590000000000002,30.92299663299664,0.0
5.733333333333333,0.05163866914772894,1.825868629480709,9.47246783693334,0.007056337882582938,0.0011230873276043133,-0.0024712106543573055,0.0,24.782680039208575,0.1959277259031945,0.0,8.614999999999998,0.01369444444432902,8.614999999999998,31.018013468013468,0.0
5.75,-0.25540000000000007,1.7548,9.86,-1.999999999999962e-05,-0.0009099999999999998,-0.003870000000000001,0.0,24.926,0.197,0.0,8.64,0.013,8.64,31.1,0.0
5.766666666666667,0.022991169861248113,1.7157583240551464,9.671474169123712,0.003278160318547373,-0.004322786704348035,0.0010765615512731547,0.0,25.071114224567527,0.19698063600830304,0.0,8.665000000000003,0.013101851833263596,8.665000000000003,31.192996632996635,0.0
5.783333333333333,-0.3825667474025682,1.796224813428506,9.909348968447466,-0.0009692306960729216,0.004743120843660715,-0.0008451189851492443,0.0,25.214824078845247,0.19699757946394275,0.0,8.69,0.011898147972772144,8.69,31.288013468013467,0.0
5.8,-0.2606,0.9938000000000001,10.0029,0.0033899999999999994,0.0027900000000000004,0.0016500000000000004,0.0,25.361,0.197,0.0,8.715,0.012,8.715,31.370000000000005,0.0
5.816666666666666,-0.05852099518983447,1.3374023698949624,9.560814563776685,-0.003500942571190596,0.003346464144841971,0.004317837306108876,0.0,25.505898000241743,0.19702856476739591,0.0,8.739999999999997,0.011305569016790633,8.739999999999997,31.462996632996624,0.0
5.833333333333333,0.4032234873422896,1.4684701519822394,9.521190118219883,-0.0041159065184899314,-0.0015962818417272918,0.005709578124728351,0.0,25.652353543498343,0.1973062236837476,0.0,8.765,0.011009386231611554,8.765,31.55801346801347,0.0
5.85,0.0199,1.4388,9.8679,-0.0032400000000000003,0.0012399999999999996,0.01021,0.0,25.798999999999996,0.19800000000000004,0.0,8.79,0.010999999999999998,8.79,31.64,0.0
5.866666666666666,0.09729453276351713,1.7340295757013993,9.48357424913871,0.004256113075493337,-0.009114661568684566,0.0037770066035635965,0.0,25.94569656336974,0.19800513906373143,0.0,8.814999999999998,0.009925439269599462,8.814999999999998,31.732996632996628,0.0
5.883333333333333,0.4113470967770809,1.7111999662428543,9.58584988480967,0.0006674019348236011,-0.003562474840222426,-0.012201295169915295,0.0,26.092654872794153,0.19800017720645793,0.0,8.84,0.009972887007127082,8.84,31.828013468013467,0.0
5.9,-0.5607,2.0454,9.9128,0.0008200000000000001,0.006019999999999999,-0.008640000000000002,0.0,26.239999999999995,0.198,0.0,8.865,0.010000000000000002,8.865,31.909999999999997,0.0
5.916666666666667,-0.04586887375833944,1.3431848222703198,10.29995128206353,0.0023513722099012613,0.00057554861988717,0.0018190113429969465,0.0,26.388345675615547,0.19802853086881322,0.0,8.889999999999999,0.008935659052455126,8.889999999999999,32.002996632996634,0.0
5.933333333333334,-0.24879562803263539,1.6205616956052642,9.294641427732188,0.002769127928824734,-0.010107859763081343,0.012207384153206758,0.0,26.536592627606915,0.19830621958145228,0.0,8.915,0.009064865052827978,8.915,32.09801346801347,0.0
5.95,0.03079999999999998,1.4342000000000001,9.3304,0.0038500000000000006,0.006280000000000002,-0.00499,0.0,26.686,0.199,0.0,8.940000000000001,0.008,8.940000000000001,32.18,0.0
5.966666666666667,-0.17907437618804922,1.6624442857859365,9.759960499812177,0.0003526291783388666,-0.0007210577480522183,-0.002104922636977538,0.0,26.83492317986354,0.19900517858215316,0.0,8.965000000000002,0.007990740086226687,8.965000000000002,32.27299663299664,0.0
5.983333333333333,0.09559130256287958,1.5568879711054897,10.089441622290238,-0.00041750388548124513,0.0009184988663228179,0.004107390470515738,0.0,26.984986443505328,0.1990005495258031,0.0,8.989999999999998,0.0076944443750548205,8.989999999999998,32.368013468013466,0.0
6.0,-0.1098,1.5446,9.7756,0.010760000000000002,-0.0031899999999999997,-0.007400000000000001,0.0,27.135,0.199,0.0,9.015,0.007,9.015,32.45000000000001,0.0
6.016666666666667,-0.3239494327488442,1.266593009465488,9.854039446507183,0.003576213783907789,0.0011717424513855075,0.0008327556066679786,0.0,27.285716547631093,0.1989999534300918,0.0,9.040000000000001,0.007101851852755865,9.040000000000001,32.54299663299664,0.0
6.033333333333333,0.10217405399932433,1.5042990758838513,9.53748699709167,-0.00023483335880745718,-0.0023612453806758963,0.008193026304551456,0.0,27.436222274534646,0.19899962744084215,0.0,9.065,0.005898148148244004,9.065,32.63801346801346,0.0
6.05,0.0718,1.3367,9.6203,-0.00112,-0.0008699999999999997,0.00269,0.0,27.588000000000005,0.199,0.0,9.090000000000002,0.006000000000000001,9.090000000000002,32.72,0.0
6.066666666666666,-0.25610668401305736,1.3600242686133228,9.262628377133309,-0.00016659391276597953,0.0007528562783086401,-0.0046308773313776036,0.0,27.739555594488756,0.1990285380313795,0.0,9.114999999999998,0.0053055555555543395,9.114999999999998,32.81299663299663,0.0
6.083333333333333,-0.15253602771143956,1.4637588667584351,10.399994705552384,-0.0019290702637186287,0.0012179715580880987,0.004060083552632362,0.0,27.892383089703745,0.19930622034150777,0.0,9.14,0.005009259259259127,9.14,32.90801346801346,0.0
6.1,0.1048,1.4272,9.4936,-0.0007599999999999998,-0.009279999999999998,-0.0010699999999999998,0.0,28.045,0.2,0.0,9.165,0.005,9.165,32.99,0.0
6.116666666666666,-0.033181712170723285,1.778451329316903,9.98598217563033,0.0014844457253763202,-0.00179339165045349,0.002594284162588969,0.0,28.198329338801173,0.20000517851781638,0.0,9.189999999999998,0.003935185185185183,9.189999999999998,33.082996632996625,0.0
6.133333333333333,-0.07519369461427941,1.316977687300006,10.328901738530304,0.003790963550491133,-0.002750903416055248,0.0007598149229133969,0.0,28.351680039208567,0.2000005490112162,0.0,9.215,0.004064814814814801,9.215,33.17801346801347,0.0
6.15,0.1471,1.1881,9.6416,0.0018899999999999993,0.006600000000000002,-0.006189999999999999,0.0,28.504999999999995,0.2,0.0,9.24,0.003,9.24,33.25999999999999,0.0
6.166666666666667,0.19444407340847072,1.5605318244712707,10.183187577627123,-0.005079518666664329,-0.010675079127523447,0.002508032506088606,0.0,28.66011422456752,0.19999999284733744,0.0,9.265,0.0029907407407407404,9.265,33.35299663299663,0.0
6.183333333333334,-0.024077219681021212,1.7561066391315834,9.526265117034052,-0.0021966884404050575,0.001610175740202656,-0.003075347001500572,0.0,28.813824078845254,0.1999999992416958,0.0,9.29,0.0026944444444444125,9.29,33.448013468013464,0.0
6.2,-0.0748,1.168,9.792800000000002,0.0055,-0.00985,0.006350000000000001,0.0,28.970000000000002,0.20000000000000004,0.0,9.315,0.002,9.315,33.53,0.0
6.216666666666667,-0.03876817629231978,1.740748494218092,9.382389400133874,-0.002648116245815899,-0.0017756163186591362,0.0012901814290294132,0.0,29.12489800024175,0.2000000000098794,0.0,9.340000000000003,0.0021018518518518383,9.340000000000003,33.62299663299664,0.0
6.233333333333333,-0.005302960034397183,1.5474303962607876,9.493612788068141,0.005079615451002324,0.002470704546549727,-0.0026359932438573216,0.0,29.281353543498348,0.2000000000010474,0.0,9.365,0.0008981481481481626,9.365,33.71801346801347,0.0
6.25,-0.17240000000000003,1.3352,9.506900000000002,0.00204,-0.00825,0.00439,0.0,29.438000000000002,0.20000000000000004,0.0,9.389999999999999,0.001,9.389999999999999,33.8,0.0
6.266666666666667,0.27562296964453864,2.0427620653384446,10.012431169892913,0.003250125081969462,0.0026727753182749733,0.002102835098691652,0.0,29.59469656336976,0.19999999999998674,0.0,9.415000000000001,0.0003055555555555267,9.415000000000001,33.892996632996635,0.0
6.283333333333333,-0.17387601171291306,1.2784198013926784,9.750568914210385,0.003976213025902109,-0.007621008182892233,-0.0005722111124647101,0.0,29.751654872794155,0.2000000000000022,0.0,9.440000000000001,9.25925925926035e-06,9.440000000000001,33.98801346801347,0.0
6.3,-0.42,1.6896,10.25,0.0003700000000000001,0.009900000000000003,-0.0035000000000000014,0.0,29.909000000000002,0.20000000000000004,0.0,9.465,5.421010862427522e-20,9.465,34.07,0.0
6.316666666666666,0.029238153653931426,1.6053458303770314,10.01389174553249,0.0071853346775032365,-0.0025877881865701666,-0.006800570659572493,0.0,30.067345675615538,0.19999999999971937,0.0,9.489999999999997,-0.0010648148148148283,9.489999999999997,34.16299663299663,0.0
6.333333333333333,0.09089469943778933,1.6765778398848654,9.659115545839201,0.0005054871291725906,0.0032718124599503038,-0.0032713094800515285,0.0,30.225592627606908,0.19999999999735282,0.0,9.514999999999999,-0.0009351851851851921,9.514999999999999,34.258013468013466,0.0
6.35,-0.17839999999999998,1.6495,9.7386,0.00651,-0.00069,0.00243,0.0,30.384999999999998,0.2,0.0,9.54,-0.002,9.54,34.34,0.0
6.366666666666666,-0.14049436322288894,1.7019122972465948,9.419045064593398,0.008390531368562009,0.0027362421288080973,0.0010847668764557912,0.0,30.543923179863526,0.20000000020318698,0.0,9.564999999999998,-0.0020092592592592566,9.564999999999998,34.43299663299663,0.0
6.383333333333333,-0.17058267755911616,1.7498130108545082,10.239812935227631,-0.014775561213547027,0.0009932316231857853,0.0019510154104011906,0.0,30.703986443505325,0.20000000191655018,0.0,9.59,-0.002305555555555519,9.59,34.52801346801346,0.0
6.4,-0.2571,1.4945000000000002,10.1643,0.0038200000000000005,-0.002000000000000001,0.00938,0.0,30.864000000000004,0.19999999999999998,0.0,9.614999999999998,-0.003,9.614999999999998,34.61,0.0
6.416666666666667,-0.2523636247213949,1.5659398519733294,10.190729636948852,-0.0005756010724499054,-0.004917809366880484,-0.0010610182647963371,0.0,31.024716547631083,0.19999985289288802,0.0,9.640000000000002,-0.00289814814814815,9.640000000000002,34.70299663299664,0.0
6.433333333333334,0.32950089040241376,1.5432097088693488,9.982437867891047,0.006693424071416022,-0.0045807669059985245,0.0008331893872987079,0.0,31.18522227453465,0.19999861242033307,0.0,9.665000000000001,-0.004101851851851866,9.665000000000001,34.798013468013465,0.0
6.45,-0.052899999999999996,1.5942,9.5289,-0.007249999999999999,0.00199,0.00504,0.0,31.347000000000005,0.2,0.0,9.69,-0.004000000000000001,9.69,34.88,0.0
6.466666666666667,-0.18463763477806855,1.3710200592565853,9.59902371036288,0.0027309413816397248,-0.004185223470584505,0.004814308687930423,0.0,31.50855559448877,0.20010650534590524,0.0,9.715000000000002,-0.004694444444444473,9.715000000000002,34.97299663299664,0.0
6.483333333333333,-0.08322493676105322,1.805828138102384,10.14791515607857,-0.005871244269136189,-0.003769843531995059,-0.005545316999885338,0.0,31.67138308970375,0.198893494651167,0.0,9.739999999999998,-0.004990740740740741,9.739999999999998,35.06801346801347,0.0
6.5,0.19340000000000002,1.3902000000000003,9.9915,-0.002370000000000001,0.00332,-0.003220000000000001,0.0,31.834,0.19900000000000004,0.0,9.765,-0.005,9.765,35.15,0.0
6.516666666666667,0.17847046329991104,1.6997002092346265,9.762315171442927,0.005199225950454012,-0.006972249781625639,-0.0032247680932038026,0.0,31.997329338801187,0.19900138778285795,0.0,9.79,-0.00606481481481481,9.79,35.242996632996636,0.0
6.533333333333333,0.027897769030275774,1.4874331198237707,9.758396538628622,-0.009214054698425777,-0.0030821455591608982,0.006370762973991261,0.0,32.160680039208565,0.19900014902366622,0.0,9.815,-0.005935185185185191,9.815,35.338013468013465,0.0
6.55,0.08549999999999999,1.2684000000000002,9.5677,-0.00251,-0.00288,0.00029000000000000006,0.0,32.324,0.199,0.0,9.84,-0.007000000000000001,9.84,35.419999999999995,0.0
6.566666666666666,0.20217776119319497,1.7642136400602386,9.667092164956125,-0.00666719617720345,-0.013564823521142029,-0.0010696166156222054,0.0,32.489114224567516,0.19899985097605677,0.0,9.864999999999998,-0.007009259259259259,9.864999999999998,35.51299663299663,0.0
6.583333333333333,0.10371052920598486,1.5062005168997412,9.657287173099256,0.003478327410817988,0.006778783919643862,-0.002180039132590814,0.0,32.65282407884524,0.19899861221449522,0.0,9.89,-0.007305555555555522,9.89,35.60801346801347,0.0
6.6,0.12769999999999998,1.7703999999999995,9.8426,-0.0045,0.0023200000000000004,-0.004909999999999999,0.0,32.819,0.199,0.0,9.915,-0.008,9.915,35.69,0.0
6.616666666666666,-0.18777327088115803,1.4037132760430593,9.992620363290532,0.003152287826324751,-0.006464780170946399,-0.001037987381353337,0.0,32.983898000241744,0.19910650555202544,0.0,9.939999999999998,-0.007898148148148147,9.939999999999998,35.782996632996635,0.0
6.633333333333333,0.11183464140052504,1.2811482003233567,9.498941989352751,-0.007633879622609895,0.0010714766259772484,0.0012775690214715247,0.0,33.15035354349835,0.19789349657069588,0.0,9.965,-0.009101851851851875,9.965,35.878013468013464,0.0
6.6499999999999995,0.4201999999999965,1.239700000000017,9.938599999999978,0.009170000000000058,0.002199999999999169,0.008469999999999131,0.0,33.31699999999999,0.198,0.0,9.99,-0.009000000000000011,9.99,35.959999999999994,0.0
6.666666666666667,0.027488875267795997,1.7712411714168295,9.71914999790251,0.0026826617698793654,-0.0034235919728081154,-0.001187519284153572,0.0,33.483696563369755,0.19800124046864598,0.0,10.014999999999999,-0.009694444444442632,10.014999999999999,36.05299663299663,0.0
6.683333333333334,-0.3187205328068706,1.5798950415730282,10.298468091058249,-0.006876888048712128,0.0006558425769436528,0.0002196972169624941,0.0,33.650654872794156,0.1979987594905747,0.0,10.040000000000001,-0.009990740740723349,10.040000000000001,36.14801346801347,0.0
6.7,-0.0459,1.3310000000000002,10.1716,0.00857,0.0025400000000000006,0.0009200000000000005,0.0,33.818000000000005,0.198,0.0,10.065000000000001,-0.010000000000000002,10.065000000000001,36.23,0.0
6.716666666666667,0.35063498440406243,1.586530470032609,9.018962636768602,0.0013717018921346664,-0.0019120389233897267,-0.0028413842251053204,0.0,33.98634567561555,0.19810650625938503,0.0,10.090000000000002,-0.01106481481614972,10.090000000000002,36.32299663299664,0.0
6.733333333333333,-0.4164800003349524,1.683800960057666,10.108300825200217,-0.005070284220797627,-0.0004989097409674012,-0.002077242991186926,0.0,34.15459262760692,0.19689352114208045,0.0,10.114999999999998,-0.010935185197776658,10.114999999999998,36.41801346801347,0.0
6.75,-0.3854,1.4569000000000003,10.174,0.0009900000000000004,-0.00296,-0.0030200000000000005,0.0,34.324,0.197,0.0,10.140000000000002,-0.011999999999999999,10.140000000000002,36.50000000000001,0.0
6.766666666666667,0.34778611989308944,1.564994821273497,9.269982463121627,0.0014714646208909144,-1.0968233484965554e-05,-0.007427709147027475,0.0,34.49292317986354,0.19699933884772655,0.0,10.165000000000003,-0.012009258292786068,10.165000000000003,36.59299663299664,0.0
6.783333333333333,-0.02094811356469277,1.708324691493871,9.839293723245229,-0.0032136323900088747,0.003931476550224686,0.0007286728467770187,0.0,34.662986443505325,0.19698082253210353,0.0,10.19,-0.012305546439350789,10.19,36.68801346801347,0.0
6.8,-0.3398,1.4152,9.8394,0.009309999999999999,-0.0007199999999999999,-0.0020800000000000003,0.0,34.833,0.197,0.0,10.215000000000002,-0.013,10.215000000000002,36.77,0.0
6.816666666666666,-0.11712282404105406,1.4728522612952024,9.546063692791684,0.0005623570271931103,-0.0027132563296380636,0.007979102969300503,0.0,35.00371654763108,0.1959277235421591,0.0,10.239999999999997,-0.012898847873405062,10.239999999999997,36.86299663299663,0.0
6.833333333333333,-0.19343763067731062,1.5113112872705239,10.339469471190146,-0.004959124672157935,0.0033743318227929192,-0.0006893054828825492,0.0,35.17422227453465,0.1959909656149805,0.0,10.264999999999997,-0.014108451971490433,10.264999999999997,36.95801346801346,0.0
6.85,-0.1933,1.6318,9.7271,-0.003099999999999999,0.0027399999999999994,-0.004209999999999999,0.0,35.346,0.196,0.0,10.29,-0.013999999999999999,10.29,37.04,0.0
6.866666666666666,-0.2917837363872329,1.4369124454523843,9.951481733449492,-0.0026209152716689726,-0.005349226886266605,0.0018575297439686266,0.0,35.517555594488755,0.19610659440685216,0.0,10.314999999999998,-0.013891548028604152,10.314999999999998,37.13299663299662,0.0
6.883333333333333,-0.07049616494595856,1.6114403616782094,9.897542468415576,0.0017039691062749325,-0.002964012548494225,0.0003866449082355083,0.0,35.69038308970375,0.19489340555535264,0.0,10.339999999999996,-0.015101152127498811,10.339999999999996,37.228013468013465,0.0
6.8999999999999995,0.06929999999996211,1.4354999999999989,10.22889999999999,0.0003600000000004654,-0.002120000000000158,-0.007299999999999907,0.0,35.86299999999999,0.195,0.0,10.365,-0.015000000000000012,10.365,37.31,0.0
6.916666666666667,0.32548500542232467,1.6374853793499364,9.877490919372635,-0.0005497003383324786,-0.002055737272613709,0.009500473508807734,0.0,36.03632933880118,0.19500903700800576,0.0,10.39,-0.015694453491259565,10.39,37.40299663299663,0.0
6.933333333333334,0.10243512563061666,1.5222187095572752,9.628757470024354,0.007385862099494554,-0.0008051726388881928,0.003373206734941248,0.0,36.20968003920857,0.19507230119857272,0.0,10.415000000000001,-0.015990741052699903,10.415000000000001,37.49801346801347,0.0
6.95,-0.23910000000000006,1.5194000000000003,10.288800000000002,-0.00252,3.000000000000008e-05,-0.00255,0.0,36.383,0.194,0.0,10.44,-0.016000000000000004,10.44,37.580000000000005,0.0
6.966666666666667,-0.2168750042012278,1.5767543866788898,9.91543338150795,0.0017650713357791948,0.0021419011474593345,-0.0030999797503458632,0.0,36.558114224567525,0.19401727846365785,0.0,10.465000000000003,-0.017064865040234654,10.465000000000003,37.67299663299663,0.0
6.983333333333333,0.3624948380302007,1.544310215137383,9.437886270989496,-0.0115581291402417,-0.004957293192805899,-0.006674617302095736,0.0,36.73182407884525,0.1939827489002223,0.0,10.489999999999998,-0.016935659051102826,10.489999999999998,37.768013468013464,0.0
7.0,-0.2896000000000001,1.4399000000000002,10.0696,0.0014700000000000004,-0.0011399999999999997,0.0009700000000000005,0.0,36.908,0.19399999999999998,0.0,10.515000000000002,-0.018,10.515000000000002,37.85000000000001,0.0
7.016666666666667,0.00630692515732355,1.3850127392082465,9.753118646655452,-0.002204539358696248,0.005954491697021333,-0.0009421712954956065,0.0,37.08289800024175,0.19292579974814694,0.0,10.540000000000001,-0.017972887008479373,10.540000000000001,37.94299663299664,0.0
7.033333333333333,0.06040214050337196,1.6106744198665843,9.803952703971415,-0.013142957156910563,-0.010671592806764881,0.010412312575005562,0.0,37.25935354349834,0.19297305059606756,0.0,10.565,-0.017925439282192694,10.565,38.038013468013474,0.0
7.05,0.1638,1.5278000000000005,9.9737,-0.00217,-0.00341,0.0007599999999999999,0.0,37.43600000000001,0.193,0.0,10.59,-0.019000000000000003,10.59,38.120000000000005,0.0
7.066666666666666,-0.023861031918487846,1.801655759884164,9.779833106617968,-0.001960057121066304,-0.003005371272457319,-0.0012842986069985115,0.0,37.612696563369745,0.1919259261001793,0.0,10.614999999999998,-0.01900938526514522,10.614999999999998,38.21299663299662,0.0
7.083333333333333,0.024710993090085877,1.452754245899655,9.72345235000515,0.005543555188066665,-0.0016469221165849649,-0.0010163536686515835,0.0,37.789654872794145,0.1919730639912986,0.0,10.639999999999999,-0.019305559900650738,10.639999999999999,38.30801346801347,0.0
7.1,0.08370000000000001,1.3439999999999999,9.7039,0.0007499999999999998,7e-05,-0.00494,0.0,37.967,0.192,0.0,10.665,-0.02,10.665,38.38999999999999,0.0
7.116666666666666,-0.3028531495165349,1.681761549106729,10.139141791571294,-0.002712253137350999,-0.0012190237715002906,0.0011339923921463956,0.0,38.14534567561553,0.19092592594425245,0.0,10.689999999999998,-0.01989884769304678,10.689999999999998,38.48299663299663,0.0
7.133333333333333,-0.18133891549823403,1.8559774747036624,9.5103421886101,0.0007738158114473255,-0.0002612392301530612,0.0008266324175199166,0.0,38.32359262760691,0.19097306414817306,0.0,10.715,-0.021108451905907127,10.715,38.57801346801346,0.0
7.1499999999999995,0.4176999999999533,1.5282000000000204,10.09859999999999,0.000520000000000926,0.0015700000000001472,0.010099999999999507,0.0,38.50299999999999,0.19100000000000006,0.0,10.740000000000002,-0.020999999999999994,10.740000000000002,38.65999999999999,0.0
7.166666666666667,0.17537461523420947,1.6696900942516257,9.354957943926019,-0.006314967733352492,0.003862285542441765,-0.0007461933073889675,0.0,38.68192317986353,0.18992591248325844,0.0,10.764999999999999,-0.020891551635651928,10.764999999999999,38.75299663299664,0.0
7.183333333333334,0.05522308691097853,1.8325429575358736,9.533091985173126,0.0030393528794743284,-0.0002151345118973622,0.008974853754863302,0.0,38.86198644350532,0.18997293717584632,0.0,10.79,-0.022101186148517506,10.79,38.84801346801346,0.0
7.2,-0.5594000000000001,1.5325,9.667800000000002,-0.00431,0.014490000000000001,0.0017899999999999997,0.0,39.042,0.19,0.0,10.815,-0.022,10.815,38.93,0.0
7.216666666666667,0.2172317199547098,1.5028176201326517,9.497299398575171,0.0007574106032777134,-0.004602005252579261,0.0013462584537041694,0.0,39.222716547631094,0.18893565839884385,0.0,10.840000000000003,-0.022691842169030953,10.840000000000003,39.02299663299664,0.0
7.233333333333333,-0.5106945265830896,1.5719768248689654,10.019708694195474,0.0048013661158589314,-0.00047470748941701776,0.0015877675802011791,0.0,39.40322227453464,0.18906486498353403,0.0,10.865,-0.022966109900757276,10.865,39.11801346801347,0.0
7.25,-0.3562,1.3702000000000003,9.628,-0.00106,0.006340000000000004,-0.005510000000000001,0.0,39.585,0.188,0.0,10.89,-0.023,10.89,39.20000000000001,0.0
7.266666666666667,0.02569347087475493,1.296352929724786,9.951640450617736,-0.010093642372699576,-0.007367519712047558,-0.0026282605079231704,0.0,39.76655559448877,0.18799074008713,0.0,10.915,-0.023696199467441104,10.915,39.29299663299664,0.0
7.283333333333333,-0.22010435927471272,1.5910173188247223,9.83321341729448,-0.005017680020494687,-0.01073442092767385,0.006652158920082563,0.0,39.949383089703744,0.1876944443751552,0.0,10.94,-0.023990801258773863,10.94,39.38801346801347,0.0
7.3,0.2588,1.4883000000000002,10.2192,0.00051,0.00876,0.00098,0.0,40.132000000000005,0.18700000000000003,0.0,10.965,-0.024,10.965,39.47,0.0
7.316666666666666,-0.03867500364595797,1.3958019998703945,9.533318057882054,-0.0014766290652522855,-0.0019111306324391354,0.003605830764079223,0.0,40.31532933880117,0.18710185185239694,0.0,10.989999999999998,-0.025074558218444298,10.989999999999998,39.56299663299663,0.0
7.333333333333333,0.06686175257481985,1.7292324941849107,9.511629036460011,0.003840820573915267,0.004511014680847975,-0.00450008497922749,0.0,40.498680039208566,0.18589814814487032,0.0,11.014999999999999,-0.025027112080297776,11.014999999999999,39.65801346801346,0.0
7.35,0.225,1.3396,10.245699999999998,-0.0037800000000000004,0.004059999999999999,-0.00984,0.0,40.682,0.18599999999999997,0.0,11.039999999999997,-0.025,11.039999999999997,39.74,0.0
7.366666666666666,-0.024646386758179706,1.4861324974406882,10.117141198330378,0.011759381911862063,-0.0012183468467233804,-0.0043532126850564295,0.0,40.86711422456751,0.1853055558144944,0.0,11.065,-0.026064391119637938,11.065,39.83299663299663,0.0
7.383333333333333,0.062488087704415045,1.4692050394490728,9.792434556040831,5.4325246223810843e-05,-0.0031839117097941824,-0.002378782107571694,0.0,41.050824078845245,0.1850092617016966,0.0,11.09,-0.02593560816118839,11.09,39.92801346801346,0.0
7.3999999999999995,-0.017400000000021256,1.2783999999999844,10.150700000000072,-0.006019999999998865,0.0006400000000000208,-0.0036499999999996297,0.0,41.236999999999995,0.18500000000000005,0.0,11.114999999999998,-0.02699999999999994,11.114999999999998,40.00999999999999,0.0
7.416666666666667,-0.30597802046451633,1.5336846678882086,9.599246943509746,-0.006253652900663282,0.014196469882196052,-0.0033087356716078654,0.0,41.42189800024175,0.18393499771295874,0.0,11.14,-0.02697293783035568,11.14,40.10299663299662,0.0
7.433333333333334,0.1618960827706578,1.4782078335764597,10.244630167745347,-0.0027630395810287665,-0.0040726404935399075,0.0012505530831862502,0.0,41.60835354349834,0.1840630464934468,0.0,11.165000000000001,-0.026925912552647268,11.165000000000001,40.198013468013464,0.0
7.45,-0.09319999999999999,1.3945,9.672700000000003,-0.0016700000000000003,0.004240000000000001,0.006560000000000001,0.0,41.795,0.183,0.0,11.19,-0.028000000000000004,11.19,40.28,0.0
7.466666666666667,0.15322209195209308,1.4849235070498181,10.338301330265315,-0.0018832003501025232,0.003401929914834755,0.0006041352255224634,0.0,41.98169656336975,0.18312647037375837,0.0,11.215000000000002,-0.027973064147294575,11.215000000000002,40.37299663299664,0.0
7.483333333333333,-0.024100161814284808,1.2528790067382403,9.949057329662187,-0.005001816729328996,0.004933406810176549,-0.0033149834525842254,0.0,42.16865487279416,0.18190063259836037,0.0,11.239999999999998,-0.02792592594439734,11.239999999999998,40.468013468013474,0.0
7.5,0.09830000000000003,1.4194999999999998,10.1167,-0.009370000000000002,-0.0038800000000000006,0.00105,0.0,42.35600000000001,0.182,0.0,11.265,-0.029,11.265,40.55,0.0
7.516666666666667,-0.13666099729877257,1.9667073391619736,9.55910105550856,4.774341210210471e-05,0.0027881236296640635,0.003571499060101611,0.0,42.54434567561555,0.18131526650077076,0.0,11.290000000000001,-0.028973063972823364,11.290000000000001,40.64299663299663,0.0
7.533333333333333,0.17158403372486108,1.2862061027457594,9.959815008691114,-0.005592759495988513,-0.003329815999980404,-0.001185866745460096,0.0,42.732592627606905,0.18110117451588154,0.0,11.315,-0.028925925925900757,11.315,40.73801346801347,0.0
7.55,0.09480000000000002,1.5194000000000003,9.848,0.007640000000000002,0.00663,-0.007180000000000001,0.0,42.922,0.18,0.0,11.34,-0.03,11.34,40.82000000000001,0.0
7.566666666666666,0.011080693103316084,1.5413592359757056,9.672382629696259,0.005759932951064337,-0.0062875118657551386,-0.006454639924273751,0.0,43.110923179863526,0.17999095343856256,0.0,11.365,-0.029973063973038783,11.365,40.91299663299663,0.0
7.583333333333333,0.04624122649658155,1.6339951979212994,10.181068970563272,-0.002918085952493387,0.004053006805566829,-0.0019537891305638376,0.0,43.30098644350532,0.17970086975527547,0.0,11.389999999999997,-0.029925925925685312,11.389999999999997,41.00801346801346,0.0
7.6,-0.1371,1.4866,9.3508,-0.00115,4.0000000000000105e-05,-0.005719999999999999,0.0,43.491,0.17899999999999996,0.0,11.415,-0.031,11.415,41.09,0.0
7.616666666666666,0.04633178307800157,1.7217576662836431,10.354634303669478,-0.005792162945587471,0.0022026893992783975,-0.011634786478438982,0.0,43.681716547631076,0.17830851805398024,0.0,11.439999999999998,-0.030973063991535505,11.439999999999998,41.18299663299664,0.0
7.633333333333333,0.1706790938599196,1.5444668985259105,9.773054007210554,0.006064396508428116,0.0016791850659563343,0.0002999380143743337,0.0,43.87222227453465,0.17809875229432426,0.0,11.465,-0.030925926100157684,11.465,41.27801346801346,0.0
7.6499999999999995,0.07269999999997281,1.3334000000000328,10.168100000000031,-0.012019999999999921,0.007009999999999981,0.0025099999999989454,0.0,44.06399999999999,0.17700000000000007,0.0,11.489999999999998,-0.031999999999999945,11.489999999999998,41.36,0.0
7.666666666666667,0.03049724734899551,1.466020004294378,10.11091855065791,0.003145669283948022,-0.0019347983964994205,0.003584124388568999,0.0,44.255555594488754,0.17712345696128579,0.0,11.514999999999999,-0.031973050599696955,11.514999999999999,41.45299663299663,0.0
7.683333333333334,-0.06537184774004205,1.6329739730115373,9.420548327485639,0.0022805694060713056,0.0018240424792336756,-0.004363185128004569,0.0,44.44838308970376,0.17587654322802257,0.0,11.54,-0.031925799782383975,11.54,41.54801346801347,0.0
7.7,0.2589000000000001,1.0368,9.5234,0.00307,-0.0020599999999999998,0.00196,0.0,44.641000000000005,0.176,0.0,11.565000000000001,-0.03300000000000001,11.565000000000001,41.63,0.0
7.716666666666667,0.44959076587035957,1.5659258912588734,9.666138723700405,-0.0027675838179742726,0.0034609792960057706,0.004252062487632219,0.0,44.83432933880119,0.17490123456767154,0.0,11.590000000000002,-0.03298274627231326,11.590000000000002,41.72299663299664,0.0
7.733333333333333,0.03686459585516307,1.5287025670467507,9.527268004296763,0.0019948349776168065,-0.00010149558660287895,0.0003712798462271303,0.0,45.02768003920857,0.17469135802472968,0.0,11.615000000000002,-0.03301725367605206,11.615000000000002,41.81801346801346,0.0
7.75,-0.2196,1.5327,10.1351,-0.0010299999999999997,0.00424,0.007429999999999998,0.0,45.221000000000004,0.17400000000000002,0.0,11.640000000000002,-0.033,11.640000000000002,41.900000000000006,0.0
7.766666666666667,-0.0931969226785283,1.769901390948446,9.528267712474177,0.0023861260406850384,-0.0015553230229039313,-0.0017310691381263658,0.0,45.41611422456752,0.1733086419704462,0.0,11.665000000000001,-0.03407420380106338,11.665000000000001,41.992996632996636,0.0
7.783333333333333,0.0057637078586890355,1.7882711888433183,9.893098043139732,-0.005519982089448188,-0.0017856822230649634,-0.004000830947676052,0.0,45.60982407884524,0.17309876538623145,0.0,11.690000000000001,-0.03402698320037007,11.690000000000001,42.08801346801347,0.0
7.8,-0.12030000000000002,1.4269,9.9057,0.007379999999999999,-0.00153,-0.0015500000000000002,0.0,45.806,0.172,0.0,11.715000000000002,-0.034,11.715000000000002,42.17,0.0
7.816666666666666,-0.030340968839840107,1.4437522472566644,9.679667074614947,0.0011404785102721348,0.001306592990191786,-0.006457636113758692,0.0,46.00089800024174,0.1721234603107268,0.0,11.74,-0.03507147953557789,11.74,42.262996632996625,0.0
7.833333333333333,0.009022025566451326,1.4892937474225827,9.333130244012949,-0.0035655799947862414,-7.309343277971147e-05,-0.0015578218769052201,0.0,46.19735354349835,0.17087657641777226,0.0,11.764999999999997,-0.03500246481157502,11.764999999999997,42.35801346801347,0.0
7.85,-0.005999999999999998,1.4860000000000002,9.281700000000003,0.005750000000000001,-0.0014900000000000004,0.0024599999999999995,0.0,46.394,0.171,0.0,11.79,-0.035,11.79,42.44,0.0
7.866666666666666,-0.13848237801738444,1.7946086322689985,9.914359155193447,0.0017855806702539395,-0.0067261500243227836,0.0034829488330810404,0.0,46.59069656336974,0.1698986856559309,0.0,11.815,-0.03569313095906995,11.815,42.53299663299663,0.0
7.883333333333333,0.2915786709341224,1.6384445660925286,10.24649418035351,-0.0011926942780243386,0.003837920148107302,-0.003730574617752447,0.0,46.78765487279414,0.1696673155540418,0.0,11.839999999999998,-0.03596627099708793,11.839999999999998,42.628013468013464,0.0
7.8999999999999995,0.24589999999996653,1.4822999999999786,9.875299999999912,0.00235999999999963,-0.010999999999999458,-0.0012499999999991116,0.0,46.98499999999999,0.16900000000000004,0.0,11.864999999999998,-0.03600000000000002,11.864999999999998,42.71,0.0
7.916666666666667,0.34177894971526496,1.762964656658907,10.078341602363029,-0.005032365255564088,0.000261950545849212,-0.0021484301484358276,0.0,47.18334567561554,0.16789479146197592,0.0,11.889999999999999,-0.03669429869032258,11.889999999999999,42.80299663299663,0.0
7.933333333333334,-0.2839983003862493,1.246377438631449,10.043238735620589,0.000506978025252443,-0.005837760463873427,-0.0029987474630785945,0.0,47.38159262760691,0.16769066615967843,0.0,11.915000000000001,-0.036972888852317386,11.915000000000001,42.898013468013474,0.0
7.95,-0.1507,1.2408,9.563100000000002,0.002170000000000001,-0.0065200000000000015,0.00107,0.0,47.581,0.167,0.0,11.94,-0.037000000000000005,11.94,42.980000000000004,0.0
7.966666666666667,0.08743389526080218,1.3344577244589728,10.301202215432523,-0.00942572823464268,-0.001963822948328823,-0.0060950769208934965,0.0,47.779923179863545,0.16630933291055258,0.0,11.965000000000002,-0.03689387650666244,11.965000000000002,43.07299663299664,0.0
7.983333333333333,0.0015093272339794152,1.6154491239830113,9.445539008111291,0.004922085476938181,-0.0016663813406372606,0.0002981823312197573,0.0,47.979986443505325,0.16610519965356507,0.0,11.99,-0.03810664436955868,11.99,43.16801346801347,0.0
8.0,-0.1221,1.3424000000000003,9.873900000000003,-0.00592,-0.00235,-0.004360000000000001,0.0,48.18,0.16500000000000004,0.0,12.015,-0.038,12.015,43.25,0.0
8.016666666666666,-0.18389319260321849,1.2378057980142314,9.872858128221244,-0.004709281751630725,0.0009680862662631307,-0.004395879124684768,0.0,48.380716547631074,0.16433336648315183,0.0,12.039999999999996,-0.03799096233793711,12.039999999999996,43.342996632996616,0.0
8.033333333333333,-0.25904720961173,1.769427168040958,10.040700873308774,0.004307210745605389,0.00030155478908243177,0.007125480400626776,0.0,48.58122227453466,0.1641077476221903,0.0,12.065000000000001,-0.037927698698297554,12.065000000000001,43.43801346801347,0.0
8.05,-0.41409999999999997,1.7843,10.271600000000001,0.00737,0.00313,-0.00397,0.0,48.783,0.16300000000000003,0.0,12.09,-0.039,12.09,43.52,0.0
8.066666666666666,-0.19778467277748346,1.5586445132732343,9.727427767185748,-0.01148687617729465,0.000818995803350333,-0.004802881251993413,0.0,48.98455559448875,0.16233333328754623,0.0,12.114999999999995,-0.03898272416020009,12.114999999999995,43.61299663299662,0.0
8.083333333333334,-0.1153258646303596,1.2635330662307567,9.487417605228558,-4.081344336517259e-05,0.00483108441533838,0.0010673409482533306,0.0,49.187383089703744,0.1621077441028899,0.0,12.139999999999997,-0.03901727584079351,12.139999999999997,43.708013468013455,0.0
8.1,0.3015,1.4597,9.5458,0.0038700000000000006,-0.0005999999999999998,0.00983,0.0,49.39,0.161,0.0,12.165,-0.039,12.165,43.790000000000006,0.0
8.116666666666667,0.09849257978735396,1.489311036606687,10.097838429288604,0.00894504152085604,-0.004082899743897987,0.0013170907529768709,0.0,49.593329338801205,0.16033333333339636,0.0,12.190000000000003,-0.040072301232745904,12.190000000000003,43.88299663299665,0.0
8.133333333333333,0.06860653530651453,1.4319699179546233,9.325834422727095,-0.0005801296007566706,-0.003950745568431974,-0.004245512121438473,0.0,49.79668003920857,0.16010774410774956,0.0,12.215,-0.04000903701164581,12.215,43.97801346801346,0.0
8.15,-0.024199999999999965,1.5544000000000002,9.6641,-0.003889999999999999,-0.00794,0.0042,0.0,50.0,0.159,0.0,12.239999999999998,-0.04,12.239999999999998,44.06000000000001,0.0
8.166666666666666,0.2023235734078719,1.6941205390701588,9.9270494278294,-0.007628370107758494,0.004003381741886681,0.0011817686897188776,0.0,50.2051142245675,0.15833333333342853,0.0,12.264999999999997,-0.03989340555397741,12.264999999999997,44.15299663299662,0.0
8.183333333333334,0.058235043402066186,1.7357204087082394,9.184464043931877,0.010156496243851674,-0.0086464780554353,-0.004007305767192574,0.0,50.40882407884526,0.15810774410864215,0.0,12.289999999999997,-0.0411065943943203,12.289999999999997,44.24801346801346,0.0
8.2,0.2272,1.6075999999999997,9.719200000000003,-0.008670000000000002,-0.00618,0.003960000000000001,0.0,50.615,0.15699999999999997,0.0,12.315,-0.04100000000000001,12.315,44.33,0.0
8.216666666666667,-0.4332856530317615,1.212803861780626,9.721627674072263,0.003825657237388426,0.0033552593583138406,-0.0017346591462974797,0.0,50.819898000241736,0.15633333326440396,0.0,12.34,-0.04099096657649234,12.34,44.42299663299663,0.0
8.233333333333333,-0.35225943991006187,1.7486097328439645,9.585131103881771,-0.0012990768739688553,0.0023386354815007576,-0.0010651124309724183,0.0,51.02635354349833,0.1561077434575711,0.0,12.364999999999997,-0.04092773261156561,12.364999999999997,44.51801346801345,0.0
8.25,0.45410000000000006,1.6348,9.585200000000002,0.003380000000000001,-0.004220000000000001,0.0014799999999999998,0.0,51.233000000000004,0.15500000000000003,0.0,12.39,-0.04200000000000001,12.39,44.6,0.0
8.266666666666666,-0.2624478154606154,1.3688094576785907,9.704462691982993,0.003644752460840009,-0.002730786790692707,-0.004230398622137368,0.0,51.43969656336974,0.1543333832381393,0.0,12.414999999999997,-0.0419801263989043,12.414999999999997,44.692996632996625,0.0
8.283333333333333,-0.5435857336793924,1.5227700493033598,10.248127856782947,-0.007614839489597406,-0.0036193142551960832,0.007619446531800696,0.0,51.646654872794166,0.15410821483205553,0.0,12.440000000000001,-0.04199277260997302,12.440000000000001,44.788013468013474,0.0
8.3,0.3465,1.7808000000000002,9.518000000000002,0.0011599999999999998,-0.004999999999999999,0.00417,0.0,51.854,0.15300000000000002,0.0,12.465000000000002,-0.042,12.465000000000002,44.87,0.0
8.316666666666666,0.14016330578386857,1.5090413714954758,9.972853700651163,-0.0033290314784347116,-0.0075985858597331915,0.001144002315173336,0.0,52.06234567561553,0.15229720232276228,0.0,12.489999999999997,-0.042693816913088885,12.489999999999997,44.962996632996614,0.0
8.333333333333334,0.03392692009659255,1.4357930900373261,9.699567251894393,-0.0005437993241029849,-0.0024362258301644057,0.00015026785125596767,0.0,52.2705926276069,0.15172990331941946,0.0,12.514999999999999,-0.042971564434634436,12.514999999999999,45.05801346801346,0.0
8.35,0.27319999999999994,1.4566,8.859200000000001,0.00261,-0.0030100000000000005,0.00712,0.0,52.480000000000004,0.151,0.0,12.540000000000003,-0.043,12.540000000000003,45.14,0.0
8.366666666666667,-0.16490779427628507,1.3051783203183747,9.928769147665989,0.00043811200060901647,-0.001000458169630519,0.006380870584661568,0.0,52.68892317986355,0.15026991285978747,0.0,12.565000000000003,-0.042992724820985345,12.565000000000003,45.232996632996645,0.0
8.383333333333333,0.08063632448306988,1.4553031340432794,10.398296586505886,0.004559253844056528,-0.003930592113601089,-0.00479781528554367,0.0,52.898986443505315,0.14970104116743949,0.0,12.590000000000003,-0.04292791004801874,12.590000000000003,45.328013468013474,0.0
8.4,0.0759,1.5089999999999997,9.3579,0.00405,-0.0028699999999999997,9.000000000000002e-05,0.0,53.10900000000001,0.14899999999999997,0.0,12.614999999999998,-0.04399999999999999,12.614999999999998,45.41,0.0
8.416666666666666,0.4855056761405592,1.4393510143003028,9.572072278055295,0.003167424519213224,-0.0012722919210368957,0.0020053240195919446,0.0,53.31971654763107,0.14802662793177362,0.0,12.639999999999997,-0.04398082010092828,12.639999999999997,45.50299663299663,0.0
8.433333333333334,-0.09104436437343241,1.3527823070638343,9.474363377070723,-0.0019604282166123753,-0.00565249133008266,-0.009209778895521043,0.0,53.53022227453466,0.14686443960265097,0.0,12.665,-0.04399933857759473,12.665,45.59801346801347,0.0
8.45,-0.20360000000000003,1.4926,10.158299999999999,-0.0056500000000000005,0.00587,0.00473,0.0,53.742000000000004,0.147,0.0,12.690000000000001,-0.044,12.690000000000001,45.68,0.0
8.466666666666667,0.2178649351771001,1.4757688077295525,9.904983021834108,0.0028961657184383,-0.005118709517901952,-0.01035990521387008,0.0,53.953555594488755,0.14604405712867324,0.0,12.715,-0.0438935221069274,12.715,45.77299663299663,0.0
8.483333333333333,-0.5033979995724062,1.4634065517499888,10.870622118063121,-0.006032187979144808,0.004749500278972451,0.0029210689762672395,0.0,54.16638308970373,0.14496320503174445,0.0,12.739999999999997,-0.045106515328949874,12.739999999999997,45.86801346801346,0.0
8.5,0.25230000000000014,1.5814,10.1044,-0.00454,0.0002899999999999997,-0.011970000000000003,0.0,54.379,0.144,0.0,12.765,-0.045,12.765,45.95000000000002,0.0
8.516666666666666,-0.29490022585216813,1.7152358932043872,9.14091621036037,0.0022904471836787447,-0.005854609710413452,0.006237902673972669,0.0,54.592329338801164,0.1433352701680622,0.0,12.789999999999997,-0.04499806337252113,12.789999999999997,46.04299663299662,0.0
8.533333333333333,0.06361457331763772,1.4466668185424165,9.532456478574028,-0.00480399340185392,0.002339474539268847,-0.0008671228854777065,0.0,54.805680039208575,0.1431084507476682,0.0,12.815,-0.04499467437379576,12.815,46.138013468013476,0.0
8.55,0.09810000000000002,1.165,9.989,0.011700000000000002,0.005320000000000001,0.006750000000000001,0.0,55.019000000000005,0.14200000000000002,0.0,12.840000000000002,-0.045,12.840000000000002,46.220000000000006,0.0
8.566666666666666,-0.09280141823889224,1.3504445122794164,9.87663252915311,-0.001173630405458469,-0.0007383045866963215,-0.0031775566682071,0.0,55.2341142245675,0.14129441526842024,0.0,12.864999999999997,-0.045693781372953705,12.864999999999997,46.31299663299663,0.0
8.583333333333334,0.3189246953700384,1.479342749463389,10.121865172118936,-0.0008062187086796173,0.0067116740308853775,-0.0036922480388094977,0.0,55.447824078845244,0.14070363884163875,0.0,12.889999999999999,-0.04597146026514312,12.889999999999999,46.40801346801346,0.0
8.6,0.007100000000000006,1.1695,9.7397,0.0011599999999999998,-0.01184,0.0020500000000000006,0.0,55.664,0.14,0.0,12.915,-0.046,12.915,46.49,0.0
8.616666666666667,0.22798258637113333,1.4904816609497942,10.028466016107336,-0.0012124040029501653,0.01143379714502787,0.003584606589464458,0.0,55.87889800024177,0.13902659401423384,0.0,12.940000000000003,-0.04600051890524211,12.940000000000003,46.58299663299665,0.0
8.633333333333333,-0.11958291014342867,1.646775162533373,9.6132514999066,0.004333375523123939,-0.0030236951232814092,0.0024254437242655943,0.0,56.09535354349834,0.13786443531321074,0.0,12.964999999999998,-0.04600142699591256,12.964999999999998,46.67801346801347,0.0
