timestamp_s,ax,ay,az,gx,gy,gz,pos_x,pos_y,pos_z,vel_x,vel_y,vel_z,speed_mps,speed_kmh,heading_deg
0.0,-0.2316,1.3893,10.2436,-0.0024,0.00314,-0.00184,0.0,0.0,0.0,0.0,0.015,0.0,0.015,0.05,0.0
0.016666666666666666,0.25742788571712266,1.540200719929384,9.29851808467606,0.001230653357474978,-0.0016232245549366378,0.0050449598508173306,0.0,0.0006002911311251727,2.3805769845715164e-14,0.0,0.04,0.000732412470016968,0.04,0.1424293509908076,0.0
0.03333333333333333,0.12855271536661,1.5249205742498861,9.758644677408473,0.001170782415355379,0.0028371665234698524,-0.008658469341609515,0.0,0.0020245512712236038,1.904461587657214e-13,0.0,0.065,0.0009704108712468556,0.065,0.2379533264449793,0.0
0.05,-0.1674,1.5063,10.0811,0.0019099999999999998,-0.010810000000000002,-0.0033699999999999997,0.0,0.003,0.0,0.0,0.09,0.001,0.09,0.32,0.0
0.06666666666666667,-0.18947355263788368,1.6461054939402238,9.737534747548118,-0.0033043774606664753,0.004735118376283389,-0.0013359891734520657,0.0,0.004549002253901589,-1.4588175761454274e-11,0.0,0.11499999999999998,0.0016961568921205063,0.11499999999999998,0.4129974165368099,0.0
0.08333333333333333,-0.27212205914879917,1.9172882938049147,9.568801770258917,0.0031585742342436123,-0.004737205333018015,0.00596469993530207,0.0,0.007382389055462065,-1.3760211086220252e-10,0.0,0.13999999999999999,0.0019909222894028446,0.13999999999999999,0.5080135510820912,0.0
0.1,0.1675,1.4165,9.3614,-0.0024,0.0049700000000000005,0.00457,0.0,0.01,0.0,0.0,0.165,0.002,0.165,0.59,0.0
0.11666666666666667,-0.2821683684819364,1.3760512969782266,9.85655802382026,-0.005648408871978804,-0.0035976650594193153,0.00034194246921940587,0.0,0.013329484451531402,1.0561815445523024e-08,0.0,0.19,0.0030648124495510818,0.19,0.6829966319143932,0.0
0.13333333333333333,0.452788478734311,1.7299880443250217,9.766462544023291,0.008931842362637188,0.0019635686556528343,-0.0034042838170876273,0.0,0.016681328129797283,9.962373781807597e-08,0.0,0.21499999999999997,0.0029351849344268865,0.21499999999999997,0.778013467898732,0.0
0.15,-0.10600000000000001,1.4997000000000003,9.8455,-0.00259,-0.00416,0.0034500000000000004,0.0,0.02,0.0,0.0,0.24000000000000002,0.004,0.24000000000000002,0.8599999999999999,0.0
0.16666666666666666,-0.37559803681042037,1.6421517901200666,9.680407858435544,0.0017386970696207562,0.0033351253840407866,0.0013255673845303344,0.0,0.025015365948475216,-7.64673979438293e-06,0.0,0.26499999999999996,0.004009259262526204,0.26499999999999996,0.9529966329981276,0.0
0.18333333333333332,0.44518938143368303,1.6371861333982898,10.045364505025088,-0.004926518857638645,0.0028020171588787153,-0.004788771919417073,0.0,0.030002711637969706,-7.212744857817608e-05,0.0,0.2899999999999999,0.004305555555901906,0.2899999999999999,1.0480134680136264,0.0
0.2,-0.2706000000000001,1.1877000000000002,9.844600000000002,0.0093,-0.00147,-0.00311,0.0,0.035,0.001,0.0,0.315,0.004999999999999999,0.315,1.13,0.0
0.21666666666666667,0.1583359081149272,1.457123026464001,9.855478394771724,-0.0005227139779005923,0.00037577590276992973,0.004925789649338226,0.0,0.03991593922277607,0.0009806734937622358,0.0,0.33999999999999997,0.004898148148143635,0.33999999999999997,1.222996632996631,0.0
0.23333333333333334,0.033299363279040324,1.5051810049426462,9.866083965960355,-0.0013492264693001229,-0.004456584276435211,-0.0061966983768063895,0.0,0.04635544598013251,0.0009979509246395917,0.0,0.3649999999999999,0.006101851851851372,0.3649999999999999,1.3180134680134674,0.0
0.25,-0.05019999999999999,1.6240000000000003,9.6367,-0.00794,0.005710000000000001,0.0015299999999999997,0.0,0.053,0.001,0.0,0.39000000000000007,0.006,0.39000000000000007,1.4,0.0
0.26666666666666666,0.11505982086195851,1.5064955684618488,9.977893586094163,0.005264741448923559,-0.0029883604709525797,0.0044612450131159736,0.0,0.05969648861350735,0.001000037255935789,0.0,0.4149999999999999,0.006694444444444449,0.4149999999999999,1.4929966329966329,0.0
0.2833333333333333,0.19696419713363256,1.6834551770143484,9.498581176712209,0.0026042604087056064,0.0056494434246604315,0.0028087670976202034,0.0,0.06665439874607912,0.0010001024539580707,0.0,0.44,0.006990740740740742,0.44,1.588013468013468,0.0
0.3,-0.061,1.4701,10.348200000000002,-0.0016399999999999997,0.003940000000000001,0.0032200000000000006,0.0,0.074,0.001,0.0,0.46499999999999997,0.007000000000000001,0.46499999999999997,1.67,0.0
0.31666666666666665,0.4076315656047925,1.5602335553054856,9.068394902685084,0.006168423475762407,0.004813130992815016,-0.0075519939601385875,0.0,0.08238186015345345,0.0009923532087265348,0.0,0.49,0.008064814814814815,0.49,1.762996632996633,0.0
0.3333333333333333,0.1267108008607781,1.2623856514832412,9.67145520551287,0.0005454313071863194,-0.006777492214734894,0.011959690070144358,0.0,0.09097097296968053,0.0009278724097171099,0.0,0.5149999999999999,0.007935185185185186,0.5149999999999999,1.858013468013468,0.0
0.35,0.03060000000000003,1.6305,10.0687,0.00355,0.00256,0.00108,0.0,0.1,0.002,0.0,0.54,0.009,0.54,1.9399999999999997,0.0
0.36666666666666664,0.02406445904460302,1.6277955755516125,9.365259832868578,-0.0029829675305334293,0.004591892043245144,-0.004480951206091299,0.0,0.1089478713973092,0.0019806840704974515,0.0,0.5650000000000001,0.009009259259259259,0.5650000000000001,2.0329966329966327,0.0
0.3833333333333333,-0.011009946262018015,1.3860627787477462,10.11095373567587,0.0013253250402375048,0.0010089941174764002,0.0011511776734354667,0.0,0.11899080083481926,0.001998050688632356,0.0,0.59,0.009305555555555544,0.59,2.1280134680134677,0.0
0.4,-0.4761,1.8158,9.321,-0.0044599999999999996,-0.001,0.0009900000000000002,0.0,0.129,0.002,0.0,0.615,0.01,0.615,2.21,0.0
0.4166666666666667,-0.15145546945377364,1.3979586342154124,10.04408980416902,0.0019163649267638684,-0.001421118450450156,0.0002710375406168911,0.0,0.13958147041689886,0.0019923797511187035,0.0,0.6400000000000001,0.009898148148148643,0.6400000000000001,2.302996632996633,0.0
0.43333333333333335,0.3320236261732363,1.4019217944090663,9.639192017007334,-0.006569278957626355,0.0021376030136882264,0.004025081769998513,0.0,0.15102255595449926,0.001927873464901561,0.0,0.6650000000000001,0.01110185185185651,0.6650000000000001,2.398013468013468,0.0
0.45,0.07049999999999998,1.3771,10.174999999999999,0.0003600000000000001,0.010750000000000001,0.0012500000000000002,0.0,0.162,0.003000000000000001,0.0,0.6899999999999998,0.011,0.6899999999999998,2.48,0.0
0.4666666666666667,0.10575098104228932,1.3209162154543244,10.158884911722131,0.00035327907198883695,-0.004363985769162914,0.006130882910596751,0.0,0.17354902824941282,0.00298082056400573,0.0,0.7150000000000001,0.011694444444086755,0.7150000000000001,2.572996632996633,0.0
0.48333333333333334,0.16887126350502568,1.5581876987179049,9.621218543607988,0.003223381021999809,0.009828646194433202,-0.011515193967191872,0.0,0.18638239181142965,0.0029993385004151627,0.0,0.74,0.011990740737366865,0.74,2.6680134680134686,0.0
0.5,0.052799999999999986,1.4645,10.0319,-0.00591,-0.009560000000000003,0.0003600000000000005,0.0,0.199,0.003,0.0,0.765,0.012,0.765,2.75,0.0
0.5166666666666666,-0.42340295331254096,1.2577680435196987,9.495619294193558,0.010153290657037274,0.0001034819910720937,-0.0038313759237795517,0.0,0.2123294844156259,0.002893531908732947,0.0,0.79,0.013064815073780527,0.79,2.8429966329966323,0.0
0.5333333333333333,0.033400114706490985,1.582169519013632,10.126849077476137,0.006247344955682792,-0.0021667070425927196,0.0011686838102451663,0.0,0.22568132812599065,0.0041066077900762145,0.0,0.815,0.012935187627864882,0.815,2.9380134680134677,0.0
0.55,0.3283999999999999,1.3747000000000003,10.2764,0.0037699999999999995,0.005180000000000001,-0.008650000000000001,0.0,0.239,0.004,0.0,0.84,0.014000000000000002,0.84,3.0200000000000005,0.0
0.5666666666666667,0.07620943945846906,1.4920499059134171,9.855405351404121,0.005946877825595756,-0.003321420211495903,0.011522322942766828,0.0,0.25401536594852475,0.003990966402228968,0.0,0.865,0.014009071768441739,0.865,3.1129966329966323,0.0
0.5833333333333334,-0.15792097767084204,1.3827323872647,9.811364178481229,-0.0036614993067129046,-0.004638673283227656,-0.010291143909578478,0.0,0.26900271163797507,0.003927732595516579,0.0,0.8900000000000001,0.014303787058828458,0.8900000000000001,3.2080134680134686,0.0
0.6,-0.2512,1.6753,9.7478,-0.00029,0.0031200000000000004,0.0021599999999999996,0.0,0.284,0.005,0.0,0.915,0.014999999999999998,0.915,3.2900000000000005,0.0
0.6166666666666667,-0.009649733137911632,1.5876148899807345,9.725887770702796,-0.005990614166154387,-0.0029522859050715544,-0.0017482124172217954,0.0,0.298915939222776,0.004980126210827168,0.0,0.94,0.015033891241065469,0.94,3.3829966329966332,0.0
0.6333333333333333,-0.035612281013781485,1.4695006198639116,9.576704220634154,-0.008064809858508607,0.009233571506842236,0.0013939511690430997,0.0,0.31535544598013254,0.004992770833697703,0.0,0.9650000000000001,0.015308166965524013,0.9650000000000001,3.478013468013468,0.0
0.65,0.2522000000000001,1.7845000000000002,10.0311,-0.0008299999999999996,-0.008460000000000002,-2.0000000000000486e-05,0.0,0.332,0.005000000000000001,0.0,0.99,0.016,0.99,3.56,0.0
0.6666666666666666,0.03677883387254596,1.577080859146688,9.63465977088256,0.006153704396099,0.0056734525203400365,0.00023457823687608194,0.0,0.34869648861350727,0.005693953255198144,0.0,1.0150000000000001,0.01589811414460179,1.0150000000000001,3.6529966329966332,0.0
0.6833333333333333,0.04725317238916225,1.5142521645979123,10.359535637946614,-0.0024706075775292537,0.0009336430701636927,-0.008095798773953954,0.0,0.36565439874607897,0.005972850474013061,0.0,1.0399999999999998,0.017101848420301293,1.0399999999999998,3.748013468013467,0.0
0.7,0.2301,1.7595,9.1898,0.01623,0.00248,0.00455,0.0,0.38300000000000006,0.006,0.0,1.065,0.017,1.065,3.83,0.0
0.7166666666666667,0.06323326867342577,1.363820865594119,10.24577144365786,-0.0031017389798562,-0.002885486969283731,0.0031791244745366844,0.0,0.4013818601534535,0.0058940133220070695,0.0,1.09,0.017694431030201883,1.09,3.9229966329966333,0.0
0.7333333333333333,0.10721917496419626,1.5569840630997893,9.728608720827731,-0.0030941928991815165,-0.007071154305347465,0.0035402870995568706,0.0,0.41997097296968056,0.0071079304252904965,0.0,1.115,0.017990613773375054,1.115,4.018013468013469,0.0
0.75,-0.008300000000000005,1.57,9.4192,0.0029900000000000013,-0.0016200000000000001,0.0073100000000000005,0.0,0.439,0.007000000000000001,0.0,1.14,0.018,1.14,4.1000000000000005,0.0
0.7666666666666666,0.12172353545606546,1.2974531914522272,10.046522428235034,-0.01112727557280561,0.0007239280559070567,5.968865192179694e-06,0.0,0.45794787139730964,0.006892253463535916,0.0,1.1649999999999998,0.019074560729977943,1.1649999999999998,4.192996632996632,0.0
0.7833333333333333,0.042260449828021844,1.5901046696724634,9.570591223518003,0.007672192510908609,0.006139851779157825,0.002799420176274787,0.0,0.47799080083482387,0.00810774383788977,0.0,1.1900000000000002,0.019027112989492192,1.1900000000000002,4.288013468013467,0.0
0.8,-0.2596,1.6392000000000002,9.9088,-0.0019000000000000006,0.00030000000000000014,0.00749,0.0,0.49799999999999994,0.008,0.0,1.215,0.019000000000000003,1.215,4.37,0.0
0.8166666666666667,-0.08849145738354423,1.5882277822541766,9.581753477141232,-0.004030005568129236,-0.005473240322224689,-0.0010039162069916216,0.0,0.5185814704165429,0.007892256855766824,0.0,1.2399999999999998,0.020064341206508834,1.2399999999999998,4.462996632996632,0.0
0.8333333333333334,0.09624107547428502,1.2114980569990572,10.105867674360635,0.0033631112976355666,0.008914762491412258,-0.005776791018790995,0.0,0.5400225559511429,0.009107753164738204,0.0,1.265,0.01993513738983437,1.265,4.558013468013469,0.0
0.85,0.2224,1.7121,10.158,0.0058600000000000015,-0.0007599999999999999,0.00118,0.0,0.5609999999999999,0.009,0.0,1.29,0.021000000000000005,1.29,4.64,0.0
0.8666666666666667,0.16179901763749363,1.3618398639307692,9.95186382521567,0.0030031587502375315,-0.0019034903207712935,0.0056575131448925895,0.0,0.5825490285070437,0.008891560739061385,0.0,1.3150000000000002,0.021009072424288826,1.3150000000000002,4.732996632996634,0.0
0.8833333333333333,-0.34922131543313245,1.8445020630094286,10.016716243089867,0.0011896724453369283,0.008259511845797712,-0.008234204053058325,0.0,0.605382394241518,0.010101187113873682,0.0,1.3399999999999999,0.02130378714079184,1.3399999999999999,4.828013468013468,0.0
0.9,-0.5385,1.5726,9.6029,-0.014890000000000006,0.00163,2.0000000000000703e-05,0.0,0.6279999999999999,0.01,0.0,1.3650000000000002,0.022,1.3650000000000002,4.91,0.0
0.9166666666666666,-0.44968990475296383,1.2089033244624088,10.020218548198685,-0.0011658184927252552,0.0056365288569457375,0.0005329178232745949,0.0,0.6513292978912814,0.01069184213786439,0.0,1.3900000000000001,0.022033890275048835,1.3900000000000001,5.002996632996632,0.0
0.9333333333333333,0.18688389070768227,1.6425120278782932,10.048605661911948,0.001995149389531876,0.00492532781776871,-0.0050994745669419575,0.0,0.6746795687454665,0.01096610972404897,0.0,1.4149999999999996,0.022308157862057046,1.4149999999999996,5.098013468013468,0.0
0.95,0.19319999999999998,1.5247,9.532999999999998,-0.00514,0.005809999999999999,-0.006500000000000001,0.0,0.698,0.010999999999999998,0.0,1.44,0.023000000000000003,1.44,5.179999999999999,0.0
0.9666666666666667,0.185806838323829,1.3738087808422004,9.74618505671344,0.0021809114644405344,-0.006611550256172087,0.0002659087302418603,0.0,0.7231504093163061,0.011696212928597757,0.0,1.465,0.022898812884800876,1.465,5.272996632996634,0.0
0.9833333333333333,-0.027045186559102596,1.3662379012536021,9.699754903028278,0.0007306880520834265,-0.00701314820662802,-0.003997690962442166,0.0,0.747202426633149,0.011990928230224891,0.0,1.4900000000000004,0.02410843924842483,1.4900000000000004,5.368013468013468,0.0
1.0,-0.6245,1.6725999999999999,9.356500000000002,0.0030899999999999994,0.004120000000000002,0.00097,0.0,0.7730000000000001,0.012000000000000004,0.0,1.5150000000000001,0.024,1.5150000000000001,5.45,0.0
1.0166666666666666,-0.07380178243890649,1.6362874939322438,9.57608557645732,0.004110733052593422,-0.008629698943881048,0.000305828148311817,0.0,0.797922505251245,0.013064812372178162,0.0,1.54,0.023892247795782286,1.54,5.5429966329966325,0.0
1.0333333333333332,0.2853793262301691,1.4788993163658206,9.386481582651014,-0.00990033613497618,0.0032321219290853903,0.000539953597285796,0.0,0.8243561414473266,0.012935184926463525,0.0,1.565,0.0251077522042894,1.565,5.638013468013468,0.0
1.05,-0.1306,1.4245,9.836700000000002,0.0023200000000000004,0.00943,-0.004350000000000001,0.0,0.851,0.014000000000000002,0.0,1.5900000000000003,0.025,1.5900000000000003,5.72,0.0
1.0666666666666667,0.13192438818715593,1.5116493159120292,10.214835365963545,-6.608598657268919e-05,0.0024684004408338806,-0.0012917844042573767,0.0,0.877696529522986,0.014009259244042015,0.0,1.6150000000000002,0.02489156074660013,1.6150000000000002,5.812996632996632,0.0
1.0833333333333333,-0.014149967038438852,1.6011089017433473,10.008201479851426,-0.005813992995954312,-0.006500906229151301,0.004057582823754977,0.0,0.9046548692058214,0.014305555380553768,0.0,1.64,0.02610118706827318,1.64,5.908013468013467,0.0
1.1,-0.4461000000000001,1.5218000000000003,9.8855,0.005860000000000001,-0.0015600000000000002,-0.00338,0.0,0.9319999999999999,0.015,0.0,1.665,0.026,1.665,5.99,0.0
1.1166666666666667,-0.3227885983963215,1.551126304276586,9.64248354001296,-0.0034670713665296733,-0.003050368368012379,0.003698302756258218,0.0,0.960345675662296,0.014898161608069305,0.0,1.6900000000000002,0.02669184573979908,1.6900000000000002,6.0829966329966325,0.0
1.1333333333333333,-0.3217068941109689,1.6657706362620375,10.049747004921587,-0.003642068127370006,0.006208062050467226,-0.005699547625411865,0.0,0.9885926276118684,0.016101978811854406,0.0,1.7149999999999999,0.026966143699259225,1.7149999999999999,6.178013468013469,0.0
1.15,0.14549999999999996,1.5904000000000003,9.3128,8.999999999999997e-05,-0.00035999999999999986,-0.00657,0.0,1.0180000000000002,0.016,0.0,1.74,0.027,1.74,6.26,0.0
1.1666666666666667,-0.12081988999289658,1.3873989804315976,10.072148331320772,0.005669459057781268,-0.002645405703581197,0.002342070354765948,0.0,1.0469231798634686,0.016684699476740852,0.0,1.7650000000000003,0.02769360512033911,1.7650000000000003,6.352996632996634,0.0
1.1833333333333333,-0.09299202995413264,1.7130245186148751,10.295655845809144,-0.007026090195549636,-0.0009630553461073167,-0.003963620544076705,0.0,1.0769864435053225,0.016898821873898295,0.0,1.7900000000000003,0.02796633022360542,1.7900000000000003,6.4480134680134675,0.0
1.2,0.3757000000000001,1.5472999999999997,10.222,0.009659999999999998,0.00015999999999999988,0.0065400000000000015,0.0,1.107,0.018000000000000002,0.0,1.815,0.028,1.815,6.529999999999999,0.0
1.2166666666666666,-0.2954073430471459,1.7211451965796118,9.937446805965397,-0.00373054572631386,-0.003724420757630526,0.001866464096915096,0.0,1.1377165476310866,0.01800904686119747,0.0,1.8399999999999999,0.028693602690250834,1.8399999999999999,6.622996632996632,0.0
1.2333333333333334,-0.0983004561345043,1.426107516200481,10.040905814442587,-0.0012771488131999072,-0.0027785840613547288,0.006943043759188281,0.0,1.1682222745346509,0.01829913263392737,0.0,1.865,0.028966329965974612,1.865,6.71801346801347,0.0
1.25,-0.15590000000000004,1.5706000000000002,9.886500000000002,-0.00047000000000000037,-0.00147,-0.0018599999999999999,0.0,1.2000000000000002,0.019,0.0,1.89,0.029000000000000005,1.89,6.8,0.0
1.2666666666666666,0.3368769968640577,1.7097601774096267,9.657775260838964,-0.001296575428877424,0.00015677496887323749,0.00018459014530348484,0.0,1.2315555944887626,0.019691298942215725,0.0,1.915,0.029693602693607313,1.915,6.892996632996633,0.0
1.2833333333333332,0.060292641705658206,1.620396715200901,9.843804868124192,-0.004330761640366584,-0.0011113434923369712,0.0011284574102047673,0.0,1.2643830897037511,0.019899521533058837,0.0,1.9399999999999997,0.029966329966330477,1.9399999999999997,6.988013468013467,0.0
1.3,-0.2034,1.1502,9.8512,0.0006699999999999997,0.0028300000000000005,-0.00106,0.0,1.2969999999999997,0.021,0.0,1.9650000000000003,0.030000000000000002,1.9650000000000003,7.07,0.0
1.3166666666666667,-0.2716124606040556,1.466108581072919,9.875031013291272,0.0001907858631616511,0.00023786181197449666,-0.0008097292966465378,0.0,1.3303293388011805,0.021009037493128678,0.0,1.99,0.030693602693600844,1.99,7.1629966329966335,0.0
1.3333333333333333,0.11919452790099078,1.3950077153797675,9.885810404373922,-0.002965127265235638,-0.0006946534125025644,-0.003297319858545434,0.0,1.3636800392085724,0.021299129283329138,0.0,2.0149999999999992,0.030966329966312683,2.0149999999999992,7.258013468013467,0.0
1.35,-0.24229999999999993,1.5648999999999997,9.759100000000002,-0.005410000000000001,-0.00867,-0.003909999999999999,0.0,1.397,0.022,0.0,2.04,0.031000000000000003,2.04,7.34,0.0
1.3666666666666667,0.21032966566504935,1.463678977649978,9.860830375539846,0.00011538827763021088,-0.003959097208796249,-0.0021176164102734672,0.0,1.4321142245675178,0.022691481958545118,0.0,2.065,0.03169360269492889,2.065,7.432996632996632,0.0
1.3833333333333333,-0.3290086198059966,1.775191423927289,9.729288291070057,-0.00034006129204951956,-0.004955511781750723,-0.0011611020457269908,0.0,1.4658240788452486,0.022901247707003292,0.0,2.0900000000000003,0.03196632997883924,2.0900000000000003,7.5280134680134685,0.0
1.4,0.0465,1.4521,8.746299999999998,0.00026999999999999984,0.00872,0.007360000000000002,0.0,1.502,0.024,0.0,2.115,0.032,2.115,7.61,0.0
1.4166666666666667,0.1037085931848448,1.261481970713885,10.034488206973302,0.005466249280751041,0.0031914803194203964,0.001040306630891301,0.0,1.5368980002417483,0.02387654303872192,0.0,2.1400000000000006,0.03269360173343816,2.1400000000000006,7.7029966329966335,0.0
1.4333333333333333,0.05443510053115501,1.7213383983039403,9.496963157203568,0.00014579900535380676,-0.0019544462296036337,0.0008992750388823415,0.0,1.5733535434983497,0.02512345677221193,0.0,2.1650000000000005,0.032966320909631135,2.1650000000000005,7.798013468013468,0.0
1.45,-0.07440000000000001,1.313,9.1243,-0.006370000000000001,-0.004600000000000001,-0.00425,0.0,1.6099999999999999,0.025,0.0,2.1900000000000004,0.033,2.1900000000000004,7.880000000000001,0.0
1.4666666666666666,0.13408220184200625,1.4849260773463446,10.123155923944818,0.0020319843104449386,0.0026410496521792892,0.002180800830098176,0.0,1.6466965633697488,0.026098765414187278,0.0,2.215,0.033694297851412154,2.215,7.972996632996631,0.0
1.4833333333333334,-0.36407823882076473,1.6432415373517932,9.808293300954917,-0.0016580482137349944,-0.0009517142814759207,-0.0013892112902616888,0.0,1.6836548727941558,0.02630864180415445,0.0,2.24,0.03397288700377398,2.24,8.068013468013469,0.0
1.5,0.018600000000000023,1.4048,9.7901,-0.00294,-0.0053900000000000016,-0.005850000000000001,0.0,1.721,0.027000000000000003,0.0,2.265,0.034,2.265,8.15,0.0
1.5166666666666666,-0.09773013420553228,1.4883787712749494,10.064052486606863,-0.008300297450360886,0.0018115344657593062,0.0036113738594147765,0.0,1.7593456756155463,0.027691371163761632,0.0,2.2899999999999996,0.03389401310341292,2.2899999999999996,8.242996632996633,0.0
1.5333333333333332,-0.08087167578052426,1.528233003440859,9.902601766254495,0.006184441072144525,0.005871141573771022,-0.012188449037615295,0.0,1.7975926276069112,0.027901358501455236,0.0,2.315,0.03510793280244786,2.315,8.338013468013468,0.0
1.55,-0.0448,1.6966,9.7121,-0.006190000000000003,-0.00227,0.006300000000000002,0.0,1.837,0.028999999999999998,0.0,2.3400000000000003,0.03500000000000001,2.3400000000000003,8.42,0.0
1.5666666666666667,-0.39262059259094434,1.2618694455190493,9.764947476392827,0.0038692956767517345,-0.0021057065656308765,0.0059219323610793856,0.0,1.8759231798635325,0.028867030540906037,0.0,2.365,0.03489206712948834,2.365,8.51299663299663,0.0
1.5833333333333333,-0.0859766442247784,1.3940936010909917,10.308127930788539,0.004221971240226396,0.005008918574987575,-0.006651092883759842,0.0,1.9159864435053289,0.030033729068184255,0.0,2.3899999999999992,0.03610598624619956,2.3899999999999992,8.608013468013468,0.0
1.6,-0.0918,1.8314000000000001,9.544899999999998,0.00255,-0.0067,0.00087,0.0,1.9560000000000004,0.031000000000000003,0.0,2.415,0.036,2.415,8.69,0.0
1.6166666666666667,-0.2632904595778614,1.299031561822355,9.988919049431995,-0.009491624369681526,-0.0035981290972032934,0.0010603374597764783,0.0,1.9967165476310866,0.03087481351656795,0.0,2.44,0.03602716292481202,2.44,8.782996632996634,0.0
1.6333333333333333,-0.19576012769609866,1.4972035103854318,9.55605041690803,-0.0012771745516270026,-0.0030826343092043504,0.007043400583409331,0.0,2.037222274534651,0.03212324057759038,0.0,2.4650000000000003,0.03630617309721492,2.4650000000000003,8.878013468013469,0.0
1.65,-0.0385,1.2963,9.915800000000003,-0.00095,-0.0023800000000000015,-0.0025299999999999997,0.0,2.079,0.032,0.0,2.4899999999999998,0.037000000000000005,2.4899999999999998,8.96,0.0
1.6666666666666667,0.018602215852572372,1.550020535836816,9.881590364472595,-0.009264733508816122,0.0003485803482236834,0.0029374504644392456,0.0,2.1205555944887626,0.033101316797226714,0.0,2.515,0.03699753086216833,2.515,9.052996632996633,0.0
1.6833333333333333,-0.09944275565128552,1.475887102079167,9.597736894460422,0.005173144878533931,-0.007656123155457329,-0.0011357443194270301,0.0,2.163383089703752,0.033332685348968355,0.0,2.5400000000000005,0.036928395073903615,2.5400000000000005,9.148013468013469,0.0
1.7,0.37460000000000004,1.4981,9.939,-0.0026700000000000005,0.00657,0.004360000000000001,0.0,2.206,0.034,0.0,2.5650000000000004,0.038,2.5650000000000004,9.23,0.0
1.7166666666666666,0.6410750712086248,1.4416412330599504,9.557671887214168,0.0020468329006078224,0.004417068094165746,0.0013307114712407756,0.0,2.249329338801181,0.03510515862462029,0.0,2.5900000000000003,0.03798271508754017,2.5900000000000003,9.322996632996631,0.0
1.7333333333333334,-0.5187477437367597,1.1138938435583325,10.164593549306792,-0.005168236025475864,-0.007926052991513301,-0.0018263651701528635,0.0,2.2926800392085727,0.03530886306562433,0.0,2.6149999999999998,0.03801727487804764,2.6149999999999998,9.418013468013468,0.0
1.75,-0.03429999999999998,1.7010000000000003,9.735500000000002,0.00022000000000000003,0.0033900000000000002,-0.00523,0.0,2.336,0.036,0.0,2.64,0.038000000000000006,2.64,9.5,0.0
1.7666666666666666,0.1933869698445871,1.4982156176489212,9.505307736910492,0.003603639394722715,-0.002904028672315278,-0.0010799630501451638,0.0,2.3811142245675176,0.03672680194064907,0.0,2.665,0.039072301314302234,2.665,9.59299663299663,0.0
1.7833333333333332,0.21108329513858598,1.7926590505748121,9.509240814829234,0.003336033862318799,0.005789600122253536,0.00268042380640535,0.0,2.4248240788452478,0.037272677361251394,0.0,2.6900000000000004,0.039009037664049916,2.6900000000000004,9.688013468013466,0.0
1.8,0.053500000000000006,1.5583,9.6663,-0.0033700000000000006,-0.008370000000000002,-0.005170000000000001,0.0,2.471,0.038,0.0,2.715,0.039,2.715,9.77,0.0
1.8166666666666667,0.3130846872382657,1.572733070603501,10.142022885880543,-0.004976199124326556,0.012510061032452925,0.0024214257227227086,0.0,2.515898000241748,0.03872727338248115,0.0,2.74,0.038893355579869074,2.74,9.862996632996635,0.0
1.8333333333333333,-0.0344986773382242,1.4781202069438992,10.015152810612737,-0.0013658358489692017,-0.0026444355201595414,-0.0017282484451828536,0.0,2.562353543498349,0.03927272738835108,0.0,2.7649999999999992,0.040106123016479235,2.7649999999999992,9.958013468013466,0.0
1.8499999999999999,0.27839999999999776,1.5180000000000042,10.133399999999988,-0.0007599999999999144,0.00029999999999992684,0.004130000000000111,0.0,2.6089999999999995,0.04000000000000001,0.0,2.7899999999999996,0.04000000000000001,2.7899999999999996,10.04,0.0
1.8666666666666667,-0.3635412710909404,1.7594227468944905,9.907748811501449,0.005056008099226591,0.0017024337690269861,-0.002358556497303982,0.0,2.655696563369749,0.04072726914298936,0.0,2.815,0.04002714774937748,2.815,10.132996632996633,0.0
1.8833333333333333,0.33436280143452535,1.3992296405600562,10.175842820082796,-0.008267916245641766,0.0012213461028158384,9.959865400970578e-05,0.0,2.7026548727941564,0.04127269347254997,0.0,2.8400000000000007,0.04030604655313211,2.8400000000000007,10.228013468013469,0.0
1.9,0.4318000000000001,1.4644000000000001,10.3161,0.00351,-0.0036200000000000004,-0.009540000000000002,0.0,2.75,0.04200000000000001,0.0,2.8650000000000007,0.04100000000000001,2.8650000000000007,10.31,0.0
1.9166666666666667,-0.04383034332105025,1.9875537333399924,9.881559809293542,0.00037781676573951976,0.00940122352537965,0.0029623672142531964,0.0,2.7983456756155465,0.042729867093220214,0.0,2.89,0.041007229426393337,2.89,10.402996632996631,0.0
1.9333333333333333,-0.20665104273838655,1.1721792868335088,9.190675079082213,0.0043757162121588,-0.0006219947703860004,0.010090304423666208,0.0,2.8465926276069125,0.04329719848548103,0.0,2.9150000000000005,0.04101987621958574,2.9150000000000005,10.49801346801347,0.0
1.95,-0.3427,1.6102,10.110100000000001,-0.00466,-0.0035500000000000006,0.0006000000000000007,0.0,2.896,0.044000000000000004,0.0,2.94,0.041,2.94,10.580000000000002,0.0
1.9666666666666666,0.15605798368321458,1.5595409816213348,10.088652963676951,0.004088727579497554,-0.0016986365141731276,-0.000958639955247243,0.0,2.9449231798635327,0.045108214624844184,0.0,2.965,0.04207208087517937,2.965,10.672996632996634,0.0
1.9833333333333334,-0.002226377362495787,1.7889778030886427,9.70581473921173,0.00019011938333974023,-0.0035363916025261165,-0.000864816203268204,0.0,2.9949864435053297,0.04533338081696558,0.0,2.9900000000000007,0.04200727417049788,2.9900000000000007,10.768013468013468,0.0
2.0,-0.15740000000000004,1.5438,9.7079,0.00207,-0.0011300000000000004,-0.00951,0.0,3.045,0.046000000000000006,0.0,3.015,0.041999999999999996,3.015,10.85,0.0
2.0166666666666666,0.08606867519143478,1.7678274246644121,9.879724118221487,-0.005569176914557113,-0.005266905782526132,0.006871478903229963,0.0,3.0957165476310875,0.04710792970477337,0.0,3.040000000000001,0.042028439165969454,3.040000000000001,10.942996632996634,0.0
2.033333333333333,-0.15418137644537616,1.7016690547679136,10.182072250149846,-0.002962149750223134,0.0022469224068008145,0.0003232934092014027,0.0,3.1462222745346513,0.04733509003144313,0.0,3.0650000000000004,0.04230621693254534,3.0650000000000004,11.03801346801347,0.0
2.05,0.379,1.8156000000000003,10.0297,0.006459999999999999,-0.000720000000000001,-0.002809999999999999,0.0,3.1979999999999995,0.048,0.0,3.09,0.043,3.09,11.119999999999997,0.0
2.0666666666666664,-0.4347714148734328,1.4208887465302482,9.62124840692908,-0.0011331599587070694,-0.0038789843443600676,-0.001141345242425356,0.0,3.2495555944887617,0.04897290134146205,0.0,3.115,0.0430046296296128,3.115,11.212996632996632,0.0
2.0833333333333335,0.5652207015893248,1.2476043227195988,9.448198374524434,0.005802966444861611,0.007601606115809162,0.0018126101636605047,0.0,3.3023830897037514,0.05013551049228759,0.0,3.1399999999999997,0.04299537037037317,3.1399999999999997,11.308013468013469,0.0
2.1,0.2909,1.5452000000000001,9.567800000000002,-0.009390000000000003,0.00366,-0.006030000000000001,0.0,3.355,0.05,0.0,3.165,0.043000000000000003,3.165,11.39,0.0
2.1166666666666667,0.2807579153998565,1.2953015689227596,9.949599635496298,-0.0017796796481737308,-0.004558428900933693,-0.008177523387371734,0.0,3.408329338801181,0.05095594352114724,0.0,3.190000000000001,0.043693783068427236,3.190000000000001,11.482996632996633,0.0
2.1333333333333333,0.10587861095934815,1.7508420369823747,9.430289779359331,0.006341851077677212,0.0002558053029638543,0.009460651804329255,0.0,3.461680039208573,0.052036795033828805,0.0,3.2150000000000003,0.04397156084320429,3.2150000000000003,11.57801346801347,0.0
2.15,-9.999999999999593e-05,1.5310999999999997,9.019,-0.0004900000000000004,-0.00058,-0.00568,0.0,3.515,0.053,0.0,3.24,0.044,3.24,11.66,0.0
2.1666666666666665,-0.07152600128847032,1.420075353390027,9.610037715976551,0.00047937338463837113,0.0024270641758914057,-0.006740240819026095,0.0,3.5701142245675173,0.05366473008867061,0.0,3.2649999999999992,0.04399272512536116,3.2649999999999992,11.75299663299663,0.0
2.183333333333333,-0.01626466578761318,1.5019757168579808,10.602464332281203,0.0020090755391042677,0.010412021205056245,0.004371779798372966,0.0,3.623824078845248,0.05389155168232471,0.0,3.29,0.04392791248305021,3.29,11.848013468013468,0.0
2.2,-0.4295,1.3272,9.433,-0.0021800000000000005,0.0020600000000000006,0.00339,0.0,3.6800000000000006,0.05500000000000001,0.0,3.3150000000000004,0.045,3.3150000000000004,11.93,0.0
2.216666666666667,0.21780405449257953,1.9522018359537505,10.071945849330291,-0.005119613792835346,0.0018080396296655725,-0.004375531045081931,0.0,3.734898000241748,0.05570539820724406,0.0,3.3400000000000007,0.044980633577491554,3.3400000000000007,12.022996632996632,0.0
2.2333333333333334,-0.07897169182722395,1.206124143024883,10.110637352755466,0.00737523638835537,-0.010138417022709505,-0.005694781382034611,0.0,3.7913535434983503,0.056294601777908126,0.0,3.3650000000000007,0.04499757920623527,3.3650000000000007,12.11801346801347,0.0
2.25,0.02149999999999999,1.5620000000000003,9.1328,0.00357,0.00698,0.0034900000000000005,0.0,3.848,0.057,0.0,3.3899999999999997,0.045000000000000005,3.3899999999999997,12.200000000000001,0.0
2.2666666666666666,0.39099054866396876,1.7303435642472607,9.97497848000455,-0.0035356540385652066,-0.00042405235003655195,0.003853976717583317,0.0,3.904696563369749,0.05810844934811449,0.0,3.415,0.045028564770753385,3.415,12.292996632996635,0.0
2.283333333333333,0.09307325240010005,1.5890225109019,9.78766264313365,0.00025755706943065296,0.0011737550883760572,0.001121422276128001,0.0,3.9616548727941563,0.05833527963071668,0.0,3.4400000000000004,0.04530622368410368,3.4400000000000004,12.388013468013469,0.0
2.3,0.04509999999999999,1.3864,9.880199999999999,-0.003689999999999999,-0.008029999999999999,0.0006699999999999999,0.0,4.019,0.059,0.0,3.4649999999999994,0.04599999999999999,3.4649999999999994,12.47,0.0
2.3166666666666664,0.268716490573432,1.7303020934753608,9.732830923676136,2.387845477022224e-05,-0.00043080486990711934,-0.0009536124852356921,0.0,4.077345675615546,0.059962458943062624,0.0,3.4899999999999993,0.046005139063721306,3.4899999999999993,12.562996632996631,0.0
2.3333333333333335,0.28542584304205804,1.3965816677033382,9.755312722185982,0.0040038157142609785,-0.011388044739325259,-0.003164946534653281,0.0,4.135592627606911,0.06103701965729913,0.0,3.515,0.04600017720640552,3.515,12.658013468013467,0.0
2.35,0.18519999999999998,1.5648000000000002,9.2822,-0.0038199999999999996,0.0089,0.00142,0.0,4.195,0.06200000000000001,0.0,3.5400000000000005,0.046000000000000006,3.5400000000000005,12.740000000000002,0.0
2.3666666666666667,0.08777027616571334,1.2618777966298778,9.431840185887554,-0.0008286435112950232,0.0034101114960591043,0.007893314444909646,0.0,4.253923179863533,0.06270090550417656,0.0,3.5649999999999995,0.04602853087279733,3.5649999999999995,12.832996632996634,0.0
2.3833333333333333,-0.03388731855513223,1.397894516325989,10.079267234952558,-0.005596430490627219,-0.0027645490019629773,-0.0021753163723155053,0.0,4.313986443505327,0.06326989589210841,0.0,3.5900000000000003,0.04630621961903195,3.5900000000000003,12.928013468013472,0.0
2.4,0.04730000000000001,1.5322,10.266899999999998,-0.007629999999999998,-0.005349999999999999,-0.00128,0.0,4.373999999999999,0.064,0.0,3.615,0.047,3.615,13.009999999999998,0.0
2.4166666666666665,-0.3827631012165135,1.3229175909372857,9.856674493732624,-0.0011289392401169069,0.0007345261675710721,0.006725435852175889,0.0,4.434716547631347,0.06473010418126655,0.0,3.6399999999999997,0.047005175697679424,3.6399999999999997,13.10299663299663,0.0
2.433333333333333,0.16140390198343987,1.6025588826512769,9.46875732031408,-0.004758140500177651,0.00030707771604666467,0.0038314074984487985,0.0,4.495222274537107,0.06529909519696216,0.0,3.665,0.04700052231816489,3.665,13.198013468013468,0.0
2.45,0.1336,1.8821000000000003,9.494900000000001,-0.004220000000000001,-0.0043900000000000015,-0.002670000000000001,0.0,4.557,0.06599999999999999,0.0,3.6900000000000004,0.04700000000000001,3.6900000000000004,13.280000000000001,0.0
2.466666666666667,0.2970038934799676,1.4057641425537337,10.870415240572862,0.004203986689299323,0.0027644246640711424,0.006448906357445935,0.0,4.618555594300165,0.06696292651807316,0.0,3.715,0.047002041785076415,3.715,13.372996632996635,0.0
2.4833333333333334,-0.3915932729975677,1.4416485182233738,8.96437359836424,-0.009729477010335129,0.0001388011025278822,-0.013065564356751326,0.0,4.681383087924805,0.0680370333591124,0.0,3.74,0.04701932573329296,3.74,13.46801346801347,0.0
2.5,-0.2861,1.4118,10.1629,0.005719999999999999,-0.00959,0.00426,0.0,4.744,0.06900000000000002,0.0,3.7649999999999997,0.047,3.7649999999999997,13.55,0.0
2.5166666666666666,-0.14539281531374068,1.4886913483061632,9.726561701895507,0.006334798409689041,0.010050535563468133,-0.005485860865177261,0.0,4.807329475346479,0.06970368932636133,0.0,3.790000000000001,0.048072127462556534,3.790000000000001,13.642996632996631,0.0
2.533333333333333,0.27168871121614185,1.6421583680700929,9.504661167670612,-0.005615689202468242,0.0039190722019470615,0.00022829790050620232,0.0,4.870681327164506,0.07029616021307891,0.0,3.815,0.048007646777732296,3.815,13.73801346801347,0.0
2.55,-0.09139999999999998,1.7198999999999998,10.1372,0.0025699999999999994,0.005639999999999999,-0.00535,0.0,4.934,0.071,0.0,3.84,0.048,3.84,13.819999999999997,0.0
2.5666666666666664,0.025738838111781792,1.4729256097088226,10.269060735228328,-0.0009176649337547317,-0.0005862466890051506,-0.0007874918210040794,0.0,4.999015365961049,0.07197340860373617,0.0,3.8649999999999998,0.04799989754621834,3.8649999999999998,13.91299663299663,0.0
2.5833333333333335,0.5107404265870809,1.3023078138446142,9.418322489591503,0.0015751262639355623,-0.001490408645561108,0.00034269920511131207,0.0,5.064002711639303,0.0731355649643572,0.0,3.89,0.047999962744082914,3.89,14.008013468013466,0.0
2.6,0.0815,1.4316,10.4222,-0.00023999999999999998,0.0031000000000000003,0.0026900000000000006,0.0,5.1290000000000004,0.07300000000000001,0.0,3.9150000000000005,0.048,3.9150000000000005,14.09,0.0
2.6166666666666667,0.5847036520159685,1.494585741025305,9.794095622426656,0.008312021036054901,0.003673548757692948,0.0005495689017118911,0.0,5.193915939222759,0.07395588897605329,0.0,3.94,0.048002049075360174,3.94,14.182996632996632,0.0
2.6333333333333333,-0.1459464491558894,1.3565992232456814,10.126000812533585,-0.005858688849876219,-0.0004898794823123074,-9.548536400289678e-05,0.0,5.260355445980131,0.07503628707376683,0.0,3.9650000000000003,0.04801932650623782,3.9650000000000003,14.27801346801347,0.0
2.65,-0.2321,1.4478,10.1872,0.00815,-0.00172,0.003989999999999999,0.0,5.327,0.07599999999999998,0.0,3.99,0.048,3.99,14.359999999999998,0.0
2.6666666666666665,-0.4020717865578878,1.4120460361193294,10.159253072316018,0.002620731126373295,0.009344723897107108,0.002995903277882085,0.0,5.393696488613506,0.07670371347442247,0.0,4.014999999999999,0.049072127448572776,4.014999999999999,14.45299663299663,0.0
2.683333333333333,0.379659132644856,1.4093360377629582,9.246422569428415,-0.008726250805492917,-0.0009083276418326226,-0.004159814185549876,0.0,5.460654398746078,0.07729629733215912,0.0,4.04,0.049007646739743456,4.04,14.548013468013469,0.0
2.7,0.050800000000000005,1.6823,10.0375,0.00079,0.00974,0.004560000000000001,0.0,5.528,0.078,0.0,4.065,0.049,4.065,14.63,0.0
2.716666666666667,-0.06601166557682611,1.6102100345105408,9.476502242995696,-0.0016824676414652527,-0.0024229095226392214,0.008007939393169863,0.0,5.596381860153454,0.07896296294946747,0.0,4.09,0.04899990038017108,4.09,14.722996632996633,0.0
2.7333333333333334,-0.4548026227753577,1.1376798067572733,9.768770032411426,-0.000957950195658534,0.0042235366135781605,-0.0021683035573302734,0.0,5.664970972969681,0.08003703703560629,0.0,4.115000000000001,0.048999989475054934,4.115000000000001,14.81801346801347,0.0
2.75,-0.1865,1.3527,9.4753,0.0010999999999999998,-0.0026699999999999996,-0.00451,0.0,5.733999999999999,0.08099999999999999,0.0,4.14,0.04900000000000001,4.14,14.899999999999999,0.0
2.7666666666666666,-0.03686381729956663,2.098100089361859,9.760219295095041,0.0014236190722550753,-0.004356377654518483,-0.003013653562459464,0.0,5.80294787139731,0.08170370370372236,0.0,4.165,0.04899999730757219,4.165,14.992996632996633,0.0
2.783333333333333,0.31793975671276486,1.8928357218212395,9.85795544618131,-0.002670029759945793,0.0016693008927485505,-0.00025026215922567644,0.0,5.8729908008348195,0.08229629629629827,0.0,4.1899999999999995,0.048999973320488006,4.1899999999999995,15.08801346801347,0.0
2.8,-0.2399,1.4901999999999997,9.142,-0.0009099999999999998,0.0017099999999999997,-0.0016199999999999997,0.0,5.943,0.08300000000000002,0.0,4.215,0.049,4.215,15.170000000000002,0.0
2.8166666666666664,0.14269316824036485,1.1818363786174653,10.37104292301017,-0.0008825554860134072,-0.0023670760134127176,0.0014242768644996903,0.0,6.013581470416898,0.08396296296296292,0.0,4.24,0.04900204893756797,4.24,15.262996632996632,0.0
2.8333333333333335,0.12890394792143745,1.6380872242951336,9.506742487878808,0.0014302371371366774,0.0009155799994468902,-0.0024826339040175324,0.0,6.0850225559545,0.08503703703703705,0.0,4.265000000000001,0.04901932649162941,4.265000000000001,15.35801346801347,0.0
2.85,-0.16640000000000002,1.2469000000000001,10.383199999999999,0.0031800000000000005,-0.00021000000000000044,-0.00833,0.0,6.156000000000001,0.086,0.0,4.29,0.04900000000000001,4.29,15.44,0.0
2.8666666666666667,0.24068778906714414,1.6471432730823872,9.871030371456497,-0.006354558309480572,-0.002886514560563187,-0.00036946300192868507,0.0,6.227549028249413,0.08670370370370371,0.0,4.315000000000001,0.0500721274487685,4.315000000000001,15.532996632996635,0.0
2.8833333333333333,-0.03756471849766889,1.3206805551709773,9.237946292531175,0.002458712843288895,-0.0030910723442484763,0.001187579038350911,0.0,6.300382391811429,0.08729629629629629,0.0,4.34,0.05000764673981457,4.34,15.628013468013469,0.0
2.9,-0.30299999999999994,1.5553999999999997,10.075199999999999,-0.00311,-0.00229,-0.0005699999999999999,0.0,6.373,0.088,0.0,4.365,0.049999999999999996,4.365,15.71,0.0
2.9166666666666665,0.02292532492757571,1.2424857615880673,9.737519994339555,-0.006036487709361303,0.0055417660092953605,-0.0032767671718298705,0.0,6.446329484415625,0.08896296296296295,0.0,4.389999999999999,0.04999990037626192,4.389999999999999,15.802996632996631,0.0
2.933333333333333,0.04271520735356773,1.5852574985822354,10.017063941769148,-0.0007012986412208246,0.004685612051257773,0.0038820768046505384,0.0,6.51968132812599,0.09003703703703705,0.0,4.414999999999999,0.04999998943818453,4.414999999999999,15.898013468013469,0.0
2.95,0.004300000000000012,1.7874000000000003,9.8961,-0.00253,-0.00323,0.00281,0.0,6.593,0.091,0.0,4.440000000000001,0.05,4.440000000000001,15.980000000000002,0.0
2.966666666666667,0.04657696337104664,1.3691060778991333,9.32083446745067,-0.007542414186955441,0.008556812719655506,-0.00622740088943556,0.0,6.668015365948525,0.09170370370370372,0.0,4.465,0.05000000013760211,4.465,16.072996632996635,0.0
2.9833333333333334,-0.1728491091968168,1.6043719527730078,9.468489496230152,0.004197429326541489,-0.0020020527662499626,0.002131406987178113,0.0,6.743002711637976,0.0922962962962963,0.0,4.490000000000001,0.05000000001458818,4.490000000000001,16.16801346801347,0.0
3.0,-0.13639999999999994,1.4874999999999998,9.631999999999998,-0.005889999999999999,0.005340000000000001,-0.004189999999999999,0.0,6.818,0.093,0.0,4.515,0.05,4.515,16.25,0.0
3.0166666666666666,-0.45153199074874756,1.1576360616600172,9.473032978781847,0.003921025731731633,-0.004864175039825462,0.001657603715720448,0.0,6.892915939222778,0.09396296296296297,0.0,4.54,0.049999999999809946,4.54,16.342996632996634,0.0
3.033333333333333,-0.11023422293315094,1.3776190641316677,10.355000046861539,0.00015246622526717663,-0.0015675574344980966,0.00021296818215243833,0.0,6.969355445980133,0.09503703703703704,0.0,4.565,0.04999999999997986,4.565,16.438013468013473,0.0
3.05,-0.1182,1.6674,9.9688,-0.006019999999999999,0.00113,0.00036999999999999956,0.0,7.045999999999999,0.09599999999999999,0.0,4.59,0.05,4.59,16.519999999999996,0.0
3.0666666666666664,0.310791746127956,1.481666761728407,9.534266672267083,-0.0019257711422546616,0.007430730928744725,-0.0008739855884422727,0.0,7.122696488613506,0.09670370370370368,0.0,4.614999999999999,0.050000000000000266,4.614999999999999,16.612996632996627,0.0
3.0833333333333335,-0.45407348720039914,1.6087404307148487,9.641502501945094,0.001277764320756433,0.00328252423176377,-0.005292963458127481,0.0,7.1996543987460795,0.09729629629629633,0.0,4.640000000000001,0.05000000000000003,4.640000000000001,16.70801346801347,0.0
3.1,0.3377,1.4197000000000002,9.9417,0.0024300000000000007,0.0019,0.00836,0.0,7.277,0.098,0.0,4.665000000000001,0.05,4.665000000000001,16.79,0.0
3.1166666666666667,-0.23851072441775722,1.561809928454286,9.35415926281455,-0.0014453113318030953,0.00011757522112951983,0.003533147501629455,0.0,7.355381860153454,0.09896296296296297,0.0,4.69,0.05000000000000002,4.69,16.882996632996633,0.0
3.1333333333333333,-0.29668696990310744,1.5602239131305906,9.70249965601221,0.0012972766580985498,0.014915569193141048,0.0006285014279969384,0.0,7.433970972969681,0.10003703703703705,0.0,4.715,0.05,4.715,16.978013468013465,0.0
3.15,-0.1594,1.5607999999999997,9.6194,-0.00166,0.00116,-0.00018000000000000004,0.0,7.513,0.101,0.0,4.74,0.049999999999999996,4.74,17.06,0.0
3.1666666666666665,-0.4389383787835407,1.5029635558874053,9.654786309255531,-0.0011751209286255215,-0.00406889473028765,-7.628707275918547e-05,0.0,7.591947871397307,0.10170370370370367,0.0,4.764999999999999,0.05,4.764999999999999,17.152996632996633,0.0
3.183333333333333,0.3295248822350753,1.515713129404896,9.902209508180023,0.0007183796603485587,-0.007842397843577535,-0.0020468852264755684,0.0,7.6719908008348225,0.10229629629629626,0.0,4.790000000000001,0.05000000000000001,4.790000000000001,17.248013468013472,0.0
3.2,0.34450000000000003,1.4684999999999997,10.2066,-0.00073,-0.00015000000000000018,-0.004000000000000001,0.0,7.752,0.103,0.0,4.815,0.05000000000000001,4.815,17.33,0.0
3.216666666666667,-0.12496970296750284,1.5784904238786377,9.751463947293084,0.00210878958254716,0.0030348020997500273,0.006770174657380897,0.0,7.832581470416543,0.10396296296296297,0.0,4.84,0.0500000000000004,4.84,17.422996632996636,0.0
3.2333333333333334,0.0591648242951792,1.68166669400728,10.237012717940289,-0.005995261861483835,0.005620469556762294,-8.041904349219994e-06,0.0,7.914022555951144,0.10503703703703704,0.0,4.865000000000001,0.050000000000003667,4.865000000000001,17.51801346801347,0.0
3.25,-0.0821,1.4274999999999998,9.7825,-0.0001600000000000002,-0.0003099999999999993,-0.006319999999999999,0.0,7.995,0.106,0.0,4.889999999999999,0.05,4.889999999999999,17.599999999999998,0.0
3.2666666666666666,-0.09167445052412862,1.5956362226458802,9.72173807277237,-0.0022100183169573595,-0.00509597363689561,-0.004016090796878869,0.0,8.076549028507046,0.10670370370370372,0.0,4.915000000000001,0.04999999999971936,4.915000000000001,17.692996632996632,0.0
3.283333333333333,0.31157566138883497,1.5201855945107892,9.684382703055798,-0.006402495649791361,-0.0011045982893367514,0.008732927679032446,0.0,8.15938239424152,0.1072962962962963,0.0,4.9399999999999995,0.049999999997352836,4.9399999999999995,17.78801346801347,0.0
3.3,-0.17859999999999998,1.3447,9.5624,0.0006099999999999994,0.00571,-0.0021200000000000004,0.0,8.241999999999999,0.10800000000000001,0.0,4.965,0.05,4.965,17.87,0.0
3.3166666666666664,-0.06847626571312847,1.8514140101347936,9.514263958103447,0.004345212635324342,0.0027882591607993356,0.001280673394007954,0.0,8.32532929789128,0.10896296296296296,0.0,4.989999999999999,0.050000000203187005,4.989999999999999,17.96299663299663,0.0
3.3333333333333335,-0.06889922536488208,1.4062591764778138,9.654710269662804,-0.0018871469488534968,0.0016249882193472155,-0.0007071532706127354,0.0,8.408679568745468,0.11003703703703702,0.0,5.015,0.050000001916550164,5.015,18.058013468013463,0.0
3.35,0.44270000000000004,1.5552999999999997,9.817400000000001,-0.00666,0.0006200000000000001,0.00322,0.0,8.492,0.111,0.0,5.040000000000001,0.05000000000000001,5.040000000000001,18.14,0.0
3.3666666666666667,-0.05897583983433581,1.3525278471670583,9.577145149225966,0.00512236663833999,0.0005904152923548702,0.0062733683499329035,0.0,8.577150409316305,0.11170370370370358,0.0,5.065,0.04999985289288761,5.065,18.232996632996635,0.0
3.3833333333333333,0.24484498426227094,1.718641005928483,9.738341320331665,-0.003936076343195826,0.0015086830374413346,0.0010304846890427102,0.0,8.66120242663315,0.11229629629629496,0.0,5.090000000000001,0.049998612420329464,5.090000000000001,18.32801346801347,0.0
3.4,0.03949999999999997,1.0611999999999997,10.696099999999998,-0.005479999999999999,-0.010349999999999998,0.0011,0.0,8.747,0.11299999999999999,0.0,5.114999999999999,0.05,5.114999999999999,18.41,0.0
3.4166666666666665,-0.1013712497857616,1.845813529802923,9.14710726155593,0.0017991189843714187,0.0037962543594665353,-0.00479824763429635,0.0,8.831922505251244,0.1139629629630657,0.0,5.139999999999999,0.050106505346185735,5.139999999999999,18.50299663299663,0.0
3.433333333333333,-0.023317528665869246,1.2454821609330302,9.629081217617495,0.000512345348531575,0.001837751932418716,-0.007274131966719287,0.0,8.918356141447326,0.11503703703800598,0.0,5.165,0.04889349465381319,5.165,18.59801346801347,0.0
3.4499999999999997,-0.1009999999999877,1.7426999999999933,9.751600000000005,-0.00024000000000016944,-0.002470000000000202,0.008279999999999945,0.0,9.005,0.11599999999999999,0.0,5.19,0.049000000000000016,5.19,18.68,0.0
3.466666666666667,0.13015698102121537,1.5244654644037519,9.581971558366705,0.0029051183064214376,0.006752539565010138,0.0037419929547697346,0.0,9.091696529522986,0.11670370362933212,0.0,5.215,0.04900138757974575,5.215,18.77299663299663,0.0
3.4833333333333334,-0.23666163758411649,1.8009300341147976,9.931460828301395,0.00150656252509393,-0.007404415441653183,0.004337725882253702,0.0,9.178654869205824,0.11729629559479027,0.0,5.240000000000001,0.04900014710782171,5.240000000000001,18.86801346801347,0.0
3.5,0.1907,1.5780000000000003,9.6123,-0.006139999999999998,-0.0037599999999999986,-0.00033000000000000005,0.0,9.266,0.11799999999999997,0.0,5.265,0.049,5.265,18.949999999999996,0.0
3.5166666666666666,-0.3171200466096876,1.650519871509329,9.743062258727678,-0.001843661722360949,-0.0026467512785733637,0.005863866899514718,0.0,9.354345675662296,0.11896301680790317,0.0,5.290000000000001,0.048999998029006044,5.290000000000001,19.042996632996633,0.0
3.533333333333333,0.16946906548910495,1.3542361029181145,10.70309020328561,0.00041157166866474153,-0.0008143055089023715,-0.0013597771553207204,0.0,9.44259262761187,0.12003754492644625,0.0,5.3149999999999995,0.04899999928327493,5.3149999999999995,19.138013468013472,0.0
3.55,-0.11819999999999999,1.5246,10.1995,0.0002199999999999997,-0.012439999999999998,0.004569999999999999,0.0,9.531999999999998,0.12099999999999998,0.0,5.339999999999999,0.049,5.339999999999999,19.22,0.0
3.5666666666666664,0.2748419495746883,1.3046771924723608,9.756990159828606,0.0005818946088312482,-0.005360539803824224,0.003667631055867099,0.0,9.620923179863466,0.1216647200413608,0.0,5.364999999999999,0.04900003941987953,5.364999999999999,19.31299663299663,0.0
3.5833333333333335,0.006128593844775165,1.3747758976128537,9.380613474404742,0.000633697509794626,-0.004501729446330242,0.00329130494027473,0.0,9.710986443505323,0.1218915480285083,0.0,5.390000000000001,0.04900037180113646,5.390000000000001,19.408013468013465,0.0
3.6,-0.034399999999999986,1.3380000000000003,9.6782,-0.00019999999999999987,-0.00099,-0.00508,0.0,9.801,0.123,0.0,5.415000000000001,0.048999999999999995,5.415000000000001,19.490000000000002,0.0
3.6166666666666667,-0.19996255657757153,1.8468446303537014,9.802813877217936,-0.004832479516136159,-0.0023202085303696334,-0.003469121717667129,0.0,9.891716547631088,0.12370559917278331,0.0,5.440000000000001,0.048971461978215614,5.440000000000001,19.582996632996636,0.0
3.6333333333333333,-0.02041545354818184,1.7316955068622872,10.095443216582183,-0.0015174576488520368,-0.003983204977645113,-0.0001512958999205083,0.0,9.982222274534651,0.12429649724834757,0.0,5.464999999999999,0.04869377965689204,5.464999999999999,19.67801346801347,0.0
3.65,-0.07399999999999998,1.2670999999999997,9.8363,-0.006329999999999999,-0.00419,-0.00047999999999999974,0.0,10.074,0.125,0.0,5.489999999999999,0.047999999999999994,5.489999999999999,19.759999999999998,0.0
3.6666666666666665,-0.1259102466731042,1.243825246264495,10.140659030682118,0.009098089888532617,-0.004169965690037971,0.007953529572158512,0.0,10.16555559448876,0.12596296034500948,0.0,5.514999999999999,0.04799482168535701,5.514999999999999,19.852996632996632,0.0
3.683333333333333,-0.026858743479390934,1.3137400970551991,10.106131053430893,-0.007751767148313746,-0.004360829701566224,0.0011135932688471674,0.0,10.25838308970375,0.12703703676044736,0.0,5.540000000000001,0.047999452905332834,5.540000000000001,19.94801346801347,0.0
3.6999999999999997,-0.5560000000000113,1.4341999999999988,9.986899999999995,0.00498000000000001,-0.0006899999999998507,0.004329999999999665,0.0,10.351,0.128,0.0,5.565,0.048000000000000015,5.565,20.03,0.0
3.716666666666667,0.02054411087298323,1.7496770741585328,9.892177538568351,-0.0037186738556681496,-0.00917944669688987,0.0053981559193262306,0.0,10.44432933880118,0.12870370363294822,0.0,5.59,0.04799986004553005,5.59,20.122996632996635,0.0
3.7333333333333334,-0.0946172303314069,1.268240891835477,9.988285210561722,-0.005358682527406783,-0.007204239236769531,0.0033564359214136906,0.0,10.537680039208574,0.12929629559517367,0.0,5.615000000000001,0.04799861317844364,5.615000000000001,20.218013468013467,0.0
3.75,0.1296,1.4731,10.316900000000002,0.002470000000000001,0.00563,-0.0063999999999999994,0.0,10.631,0.13,0.0,5.64,0.047999999999999994,5.64,20.3,0.0
3.7666666666666666,0.39997397463482154,1.4906878777754093,10.536673416201177,-0.002136366532957321,-0.001416551687663984,-0.001219896645824315,0.0,10.726114224567517,0.13096301680789624,0.0,5.665,0.04810650535089467,5.665,20.392996632996635,0.0
3.783333333333333,-0.20956279287905957,1.2938319918352132,9.600761685067196,-0.0017331941203207436,0.00672522230785968,0.0007260588869226947,0.0,10.819824078845249,0.13203754492642708,0.0,5.69,0.04689349479036914,5.69,20.488013468013467,0.0
3.8,0.009599999999999997,1.5194999999999999,9.7621,0.00037999999999999997,-0.0024600000000000004,-0.0006100000000000003,0.0,10.916,0.133,0.0,5.714999999999999,0.04699999999999999,5.714999999999999,20.57,0.0
3.8166666666666664,0.051220475740734836,1.7398660831132873,9.941639502154132,0.009136562235272632,-0.0007800943974059951,-0.002534836194382514,0.0,11.010898000241747,0.13366472004279156,0.0,5.739999999999999,0.04700137701784855,5.739999999999999,20.66299663299663,0.0
3.8333333333333335,0.22720520069352532,1.5424896120616953,9.701862208193637,-0.0025287743603813885,0.0022251401982523425,-0.0020204774608488024,0.0,11.10735354349835,0.13389154804200382,0.0,5.765,0.047000047483185696,5.765,20.758013468013466,0.0
3.85,0.1074,1.6347,9.9991,0.0019199999999999998,-0.0029700000000000004,-0.00746,0.0,11.204,0.135,0.0,5.790000000000001,0.047,5.790000000000001,20.84,0.0
3.8666666666666667,-0.08484285536119078,1.5239938741320944,9.958145542724512,0.003168271158423485,-0.004142882368063315,0.000980931008355531,0.0,11.300696563369751,0.13570559813692115,0.0,5.815000000000001,0.047007644837852434,5.815000000000001,20.932996632996637,0.0
3.8833333333333333,-0.024598805528056246,1.4564444310512599,9.585503286454495,-0.002310094889374165,-0.00218894806473858,-0.0065625994545464444,0.0,11.397654872794158,0.13629648747763512,0.0,5.839999999999999,0.04707212738318236,5.839999999999999,21.02801346801347,0.0
3.9,-0.214,1.3688,9.7405,0.0020600000000000006,-0.0024,-0.0011500000000000002,0.0,11.494999999999997,0.13699999999999998,0.0,5.865,0.046,5.865,21.11,0.0
3.9166666666666665,-0.4779783794242045,1.5490727489542193,10.59180978752405,0.0026984523994668923,0.003193225171531355,0.006364489848722887,0.0,11.593345675615545,0.1379637103077936,0.0,5.889999999999998,0.04601931593255646,5.889999999999998,21.20299663299663,0.0
3.933333333333333,0.13925222384194103,1.5825089734923081,9.718369509860555,-0.0013399331401683602,-0.0001637783645581296,-0.002253443373467671,0.0,11.69159262760691,0.13904411074277215,0.0,5.915,0.0460019493150099,5.915,21.29801346801347,0.0
3.9499999999999997,0.23670000000002728,1.3047,9.573900000000013,-0.003030000000000059,0.001779999999999484,-0.002440000000000053,0.0,11.790999999999999,0.14,0.0,5.94,0.046000000000000006,5.94,21.38,0.0
3.966666666666667,-0.3512511822473707,1.6206358830114997,9.915809030608758,0.0018662657014676468,-0.00024658626512202213,-0.0006930629652024178,0.0,11.889923179863532,0.13986443531680817,0.0,5.965,0.04600761999126731,5.965,21.472996632996633,0.0
3.9833333333333334,-0.06890384863091861,1.1941069086664837,9.986045648565618,-0.0017349782952028213,0.004207817338272719,-0.0034232870437518035,0.0,11.989986443505332,0.1410265940146152,0.0,5.990000000000001,0.04607212410520351,5.990000000000001,21.568013468013476,0.0
4.0,-0.06419999999999998,1.401,9.614799999999999,0.003960000000000001,0.0069700000000000005,-0.004850000000000002,0.0,12.09,0.142,0.0,6.015000000000001,0.045000000000000005,6.015000000000001,21.65,0.0
4.016666666666667,0.2743009931852568,1.1903664692408817,10.188270570252485,-0.004975931373129598,-0.0017351395935818468,0.0002538376985983121,0.0,12.190716547631089,0.14270363884163378,0.0,6.040000000000001,0.045019365945471256,6.040000000000001,21.742996632996636,0.0
4.033333333333333,0.29448603679552127,1.594029892712446,9.758643891595215,0.00016347812623645398,0.0003492106403171763,-0.00010155176502750439,0.0,12.291222274534649,0.1432944152684184,0.0,6.0649999999999995,0.04500242073987184,6.0649999999999995,21.838013468013468,0.0
4.05,-0.048000000000000015,1.7649,9.6135,0.0025400000000000006,0.00166,0.0018800000000000006,0.0,12.393,0.144,0.0,6.09,0.045,6.09,21.920000000000005,0.0
4.066666666666666,-0.030553069071908127,1.4679774236245628,8.92777588439166,-0.0016071367407828568,-0.002540496129870361,-0.0022669123016350514,0.0,12.49455559448876,0.14510845074776357,0.0,6.114999999999999,0.044971435487541206,6.114999999999999,22.012996632996632,0.0
4.083333333333333,0.21012802349869508,1.6804100267861353,10.460784243910322,0.004996444529605301,-0.0017940987057692098,-0.006886568409671504,0.0,12.597383089703747,0.1453352701689614,0.0,6.14,0.044693778746105375,6.14,22.108013468013468,0.0
4.1,-0.185,1.371,9.5554,0.00261,0.0015,0.00391,0.0,12.7,0.146,0.0,6.165,0.044,6.165,22.190000000000005,0.0
4.116666666666666,0.11673953339316677,1.2668751228586308,9.717692833875741,0.006591820588742541,0.007676189471610175,-0.004958220203645811,0.0,12.803329338801175,0.14696320496271936,0.0,6.189999999999999,0.04399467440801952,6.189999999999999,22.28299663299663,0.0
4.133333333333333,-0.13227134614229924,1.5087181215406062,9.732148702518716,-0.0002915397826630251,-2.211803357532684e-05,-0.0011047714848781002,0.0,12.90668003920857,0.14804405647759752,0.0,6.214999999999999,0.04399806337615402,6.214999999999999,22.378013468013467,0.0
4.15,0.09040000000000001,1.4191999999999998,9.732299999999999,-0.00016999999999999985,-0.00864,-0.002279999999999999,0.0,13.010000000000002,0.149,0.0,6.239999999999999,0.044,6.239999999999999,22.46,0.0
4.166666666666667,-0.19817281130553907,1.5576669600541087,9.288523500684843,0.0004127341951863856,0.0005537631283298334,0.012326117519126123,0.0,13.115114224567517,0.148864489576749,0.0,6.265,0.0441065153285468,6.265,22.552996632996635,0.0
4.183333333333334,-0.07602526834697515,1.7429773852195236,9.90022179920555,0.0057146544148740375,0.004493480939997782,-0.0008203580205297507,0.0,13.21882407884525,0.15002709930967859,0.0,6.29,0.04289352210356622,6.29,22.64801346801347,0.0
4.2,-0.1932,1.3847,9.612400000000001,-0.0013299999999999998,0.00315,-0.00563,0.0,13.325000000000001,0.151,0.0,6.315000000000001,0.043,6.315000000000001,22.730000000000004,0.0
4.216666666666667,0.32767955550743416,1.6652643164682124,9.89354452212305,-0.004073970496264441,0.005348194506446913,0.0030313585785668794,0.0,13.42989800024175,0.15166485998950946,0.0,6.340000000000001,0.04299933883520005,6.340000000000001,22.822996632996638,0.0
4.233333333333333,-0.08247140767975414,1.2817660906410948,9.449464968965136,-0.006750108437936844,-0.00023104548781441173,-0.0017312068369717795,0.0,13.536353543498347,0.15189159887063639,0.0,6.364999999999999,0.04298082253077557,6.364999999999999,22.918013468013463,0.0
4.25,0.10000000000000005,1.6612,9.5708,8.000000000000105e-05,0.0005100000000000006,-0.0009099999999999999,0.0,13.643,0.153,0.0,6.390000000000001,0.043000000000000003,6.390000000000001,23.0,0.0
4.266666666666667,-0.05888093163386382,1.3655642132451833,10.563016556312313,0.0045196828779600455,0.0020126734632146485,-0.008447876549886121,0.0,13.749696563369755,0.1537028039443491,0.0,6.415,0.041927723542169594,6.415,23.09299663299663,0.0
4.283333333333333,-0.16749409001882198,1.2392100276631668,9.690314744108427,0.003049410207100707,-0.009172473688017126,-0.0026018179377602477,0.0,13.856654872794156,0.15427013316438445,0.0,6.44,0.041990965614917816,6.44,23.188013468013466,0.0
4.3,0.048,1.8809,9.6207,0.00097,0.007030000000000001,0.007860000000000002,0.0,13.964000000000002,0.15500000000000003,0.0,6.465,0.042,6.465,23.27,0.0
4.316666666666666,0.12731865111646196,1.7779489977267338,10.094972411467943,-0.007760507220814797,0.003683995903958024,0.004049782057398317,0.0,14.072345675615544,0.15572730652399866,0.0,6.49,0.042106594411803394,6.49,23.362996632996627,0.0
4.333333333333333,0.05728887759556572,1.5672516589992969,10.138230666931321,0.0055908222008702,0.0012479215384885015,0.003859615997622139,0.0,14.18059262760691,0.15627273085575666,0.0,6.514999999999999,0.04089340560205523,6.514999999999999,23.45801346801347,0.0
4.35,-0.0116,1.3441,9.944799999999999,-0.0004499999999999998,-0.006980000000000002,0.0007299999999999999,0.0,14.290000000000001,0.15699999999999997,0.0,6.539999999999999,0.041,6.539999999999999,23.540000000000003,0.0
4.366666666666666,-0.11136321741109276,1.4810651362893048,10.020179763130447,-0.008965788341446472,-0.0017690412622376436,0.0006360373637853006,0.0,14.398923179863525,0.15772727268059186,0.0,6.564999999999998,0.041009033423294323,6.564999999999998,23.632996632996626,0.0
4.383333333333333,0.07362819229239437,1.5316555235082587,9.83820832352616,0.008555686733489635,-0.0007712386963310956,-0.0017097939702058322,0.0,14.508986443505325,0.15827272726777702,0.0,6.59,0.04107226738598132,6.59,23.728013468013465,0.0
4.4,-0.12069999999999999,1.4090999999999998,9.8235,0.00361,0.00177,-0.00134,0.0,14.619,0.159,0.0,6.615,0.039999999999999994,6.615,23.81,0.0
4.416666666666667,-0.10379368990988483,1.2498626991993682,10.077523526504658,0.0032564516135783106,0.0004455816602728804,0.0009199073027605104,0.0,14.729716547631089,0.15972727272743245,0.0,6.64,0.0400198737897693,6.64,23.902996632996633,0.0
4.433333333333334,0.35436286569151015,1.597412283986921,9.948013470497306,-0.0027969061363664017,-0.002199623913585843,0.00029788509791050345,0.0,14.84022227453465,0.16027272727363226,0.0,6.665,0.040007229169680934,6.665,23.99801346801347,0.0
4.45,-0.09490000000000001,1.7639,10.295600000000002,0.0056700000000000006,-0.0020900000000000007,0.00881,0.0,14.952000000000002,0.161,0.0,6.69,0.04000000000000001,6.69,24.080000000000002,0.0
4.466666666666667,0.005672489946150853,1.3239776803995864,9.973542603054991,0.0020625978887490117,0.0053175488540201125,0.0052240384006948005,0.0,15.063555594488767,0.16172727265833414,0.0,6.715000000000001,0.03930604648743079,6.715000000000001,24.17299663299664,0.0
4.483333333333333,-0.07731702700121362,1.818647166255169,10.134109406781043,-0.006118236596980413,-0.0018210478673172201,-0.006694202102096292,0.0,15.17638308970375,0.16227272662246825,0.0,6.739999999999998,0.03902714709835205,6.739999999999998,24.268013468013468,0.0
4.5,-0.17570000000000005,1.3654,9.7595,0.0019100000000000002,-0.007270000000000001,-0.00447,0.0,15.289,0.16300000000000003,0.0,6.765000000000001,0.039,6.765000000000001,24.35,0.0
4.516666666666667,0.08800356148482785,1.479415210026879,10.058987417254883,0.004205269524655402,0.0011327517326815521,-0.002440746442874428,0.0,15.402329338801183,0.16372732263868414,0.0,6.790000000000002,0.03910617301402593,6.790000000000002,24.44299663299664,0.0
4.533333333333333,0.20849431281509587,1.839046754690424,10.035890834852083,0.0019894616094439464,-0.0027613497783971546,-0.00228037799502484,0.0,15.51568003920857,0.1642731980593441,0.0,6.814999999999999,0.03789382717899582,6.814999999999999,24.538013468013467,0.0
4.55,-0.2702,1.4869000000000003,10.1903,0.004020000000000001,-0.00216,0.0017600000000000007,0.0,15.629,0.165,0.0,6.84,0.038,6.84,24.62,0.0
4.566666666666666,-0.045088042007038476,1.599732482364428,9.927304341439292,0.002346340334935959,0.0049968633510864835,0.0057523121664195265,0.0,15.744114224567513,0.16569113693437573,0.0,6.864999999999999,0.037972839505938626,6.864999999999999,24.712996632996635,0.0
4.583333333333333,-0.021035821499982964,1.5118654008427468,9.769703938089243,-0.003333079751606691,0.0047875466861879825,0.004163426055949887,0.0,15.857824078845246,0.16589484137537974,0.0,6.889999999999999,0.0376938271605329,6.889999999999999,24.808013468013463,0.0
4.6,0.4811,1.3128,9.8278,0.0005,0.00121,0.007870000000000002,0.0,15.974,0.167,0.0,6.915000000000001,0.037,6.915000000000001,24.89,0.0
4.616666666666666,-0.05156855579700606,1.7032749655464168,10.098065676978269,0.0003298835371263936,0.0011452191174454295,-0.005009558341082955,0.0,16.08889800024174,0.16766731465103157,0.0,6.939999999999999,0.03700246913084469,6.939999999999999,24.982996632996624,0.0
4.633333333333333,0.2297589717039661,1.5243252573706072,10.08805428484336,-0.0051997214461448745,0.006859771200505919,-0.0012282346605817394,0.0,16.205353543498347,0.1678986832027733,0.0,6.964999999999999,0.03707160489150458,6.964999999999999,25.078013468013463,0.0
4.65,-0.3431,1.2726999999999997,10.1695,0.0061400000000000005,0.005540000000000001,-0.011299999999999998,0.0,16.322,0.16899999999999998,0.0,6.99,0.036,6.99,25.16,0.0
4.666666666666667,-0.1485997831826371,1.4004887583483991,9.607719600380465,0.001289089896715112,0.0026907919146456727,0.0005994082596180687,0.0,16.43869656336975,0.1688767594224096,0.0,7.014999999999999,0.03601728754027812,7.014999999999999,25.25299663299663,0.0
4.683333333333334,-0.0899004329006047,1.3875075221059043,9.504386427917355,0.006632888241576213,0.0020595856289796926,0.009166986723647892,0.0,16.555654872794157,0.17012518648343197,0.0,7.040000000000001,0.035982749908659364,7.040000000000001,25.348013468013466,0.0
4.7,-0.3370000000000001,1.7782,9.9407,-0.0046700000000000005,0.004850000000000002,-0.005440000000000001,0.0,16.672999999999995,0.17,0.0,7.065000000000001,0.036000000000000004,7.065000000000001,25.43,0.0
4.716666666666667,0.10040417262049924,1.4667639902108993,9.244428832769762,-0.004957635425315629,-0.006058565320728596,-0.0015242438447346524,0.0,16.791345675615553,0.1709662709318225,0.0,7.090000000000002,0.03492579615223223,7.090000000000002,25.522996632996634,0.0
4.733333333333333,-0.08442332945277235,1.4505139231315718,9.648423754827386,0.012111967878413158,0.0029820852695547364,-0.0014883014084406654,0.0,16.90959262760691,0.17213296945915732,0.0,7.114999999999999,0.03497301679466137,7.114999999999999,25.61801346801347,0.0
4.75,-0.4653,1.5003,9.7024,-0.00147,-0.011910000000000004,-0.0055200000000000015,0.0,17.029,0.172,0.0,7.14,0.035,7.14,25.7,0.0
4.766666666666667,0.12584176891323606,1.5700749215564218,10.117953622470147,0.003680439513471401,0.008470870663198259,0.0017223945874445218,0.0,17.147923179863536,0.173098641493682,0.0,7.165000000000001,0.03392852046581503,7.165000000000001,25.792996632996637,0.0
4.783333333333333,-0.2525497840311759,1.555775093597764,9.987233595563161,-0.0031091136942039787,-2.6541202006976283e-06,0.003977307061392693,0.0,17.267986443505325,0.17330862879037065,0.0,7.189999999999999,0.03399753520096176,7.189999999999999,25.88801346801347,0.0
4.8,0.015200000000000009,1.4201000000000001,8.9143,-0.004460000000000001,-0.00165,-0.0033,0.0,17.388,0.174,0.0,7.215,0.03400000000000001,7.215,25.97,0.0
4.816666666666666,-0.031004125065799103,1.5563409510931019,9.815589239587286,0.0031916498940250896,-0.00887475779806533,0.000856858830983071,0.0,17.50871654763109,0.1746913617164756,0.0,7.24,0.033306868079178584,7.24,26.062996632996622,0.0
4.833333333333333,-0.08830710604574199,1.5321072009630363,9.60969009448151,-0.0027351347563344883,-0.00035605779987695814,0.003508729701017945,0.0,17.629222274534648,0.17490126779396062,0.0,7.264999999999998,0.03303371993124593,7.264999999999998,26.158013468013465,0.0
4.85,0.04179999999999999,1.2209,9.9407,-0.006469999999999999,-0.00099,-0.00038,0.0,17.751,0.176,0.0,7.290000000000001,0.033,7.290000000000001,26.24,0.0
4.866666666666666,-0.14057003608649826,1.561546857409772,9.627973953396923,-0.0044431109356160145,0.0009852566173803295,0.005098108076992067,0.0,17.872555594488755,0.17587399429646208,0.0,7.314999999999998,0.03230639761631886,7.314999999999998,26.332996632996633,0.0
4.883333333333333,-0.2930795129223529,1.3952669647161895,9.888149110922413,-0.0030040634607306025,-0.002166683954022057,-0.00394205504275542,0.0,17.99538308970375,0.1770994143080579,0.0,7.339999999999998,0.0320336790214195,7.339999999999998,26.428013468013464,0.0
4.9,-0.2327,1.481,10.507099999999998,-0.0112,-0.00367,0.017029999999999997,0.0,18.117999999999995,0.177,0.0,7.365000000000001,0.031999999999999994,7.365000000000001,26.51,0.0
4.916666666666667,0.035143585038769784,1.4512490990530733,9.784012945460862,-0.0011134065816167061,0.0002552631109537263,-0.0025574769436911924,0.0,18.24132933880118,0.1776849157930862,0.0,7.389999999999999,0.03130570215045664,7.389999999999999,26.602996632996636,0.0
4.933333333333334,-0.02162183447171226,1.6063510852740686,9.947742486610524,-0.0024647715266406405,0.001522647919226442,0.00033208421712170567,0.0,18.364680039208576,0.17790055094986187,0.0,7.414999999999999,0.031027113005477423,7.414999999999999,26.698013468013464,0.0
4.95,0.0928,1.386,10.2547,0.00143,0.004860000000000001,0.0006200000000000005,0.0,18.488,0.179,0.0,7.440000000000001,0.031,7.440000000000001,26.780000000000005,0.0
4.966666666666667,0.20369965319868705,1.9700906133513654,9.7446461255475,0.001429476025606045,-0.003223897096056309,0.004218902859262062,0.0,18.61311422456752,0.17887660113875187,0.0,7.465,0.031105986193791485,7.465,26.872996632996635,0.0
4.983333333333333,-0.1070938110304303,1.0951584079767416,9.155023916395214,0.00785457467460946,-0.005590409566090879,-0.0018765477832043565,0.0,18.736824078845245,0.18012392021416077,0.0,7.490000000000001,0.029892060568483404,7.490000000000001,26.968013468013467,0.0
5.0,-0.15899999999999997,1.6498000000000002,10.118300000000001,-0.00791,0.004320000000000001,-0.0048200000000000005,0.0,18.863,0.18000000000000002,0.0,7.515,0.030000000000000002,7.515,27.05,0.0
5.016666666666667,-0.009611019412219424,1.57712461233358,10.16249215811907,-0.009936495216481836,-0.0031874692699295874,-0.0021726376066383644,0.0,18.987898000241753,0.18106326715800092,0.0,7.540000000000002,0.030108441692645423,7.540000000000002,27.142996632996635,0.0
5.033333333333333,-0.6753960165232124,1.7220578358688212,9.7142346358604,0.006853818220370948,-0.0011368628102781681,0.005539251563719285,0.0,19.114353543498343,0.1809367695532627,0.0,7.5649999999999995,0.02889881319032838,7.5649999999999995,27.238013468013467,0.0
5.05,0.020600000000000007,1.2595,10.0948,0.0020200000000000005,-0.00076,-0.0033800000000000006,0.0,19.241000000000003,0.182,0.0,7.590000000000001,0.029000000000000005,7.590000000000001,27.32,0.0
5.066666666666666,-0.3829845617178313,1.351508575667335,10.25302028513436,-0.000850272625973278,0.0009668337102952338,-0.0036366830604116934,0.0,19.367696563369744,0.18187353202414294,0.0,7.614999999999999,0.028308154256838643,7.614999999999999,27.412996632996627,0.0
5.083333333333333,0.21230977383343028,1.5273313859666062,8.986118239205197,0.008218070813977532,0.007323528651986165,-0.009394547312377776,0.0,19.494654872794154,0.18309936766807303,0.0,7.639999999999998,0.028033856300448072,7.639999999999998,27.508013468013463,0.0
5.1,0.12159999999999999,1.8081,10.0153,-0.00877,-0.00715,0.0076,0.0,19.622,0.183,0.0,7.665,0.028,7.665,27.589999999999996,0.0
5.116666666666666,-0.02299222281863433,1.1002406785875156,10.121228812009255,-0.005163901356761769,0.004882825979065199,-0.004296974803237081,0.0,19.75034567561554,0.18368473254768775,0.0,7.6899999999999995,0.02730639487471622,7.6899999999999995,27.682996632996627,0.0
5.133333333333333,-0.4929839425773412,1.4916039094957487,9.323989809186305,-0.00414449494746424,-0.008314177523867481,-0.0053036640690432915,0.0,19.87859262760691,0.18389881653962947,0.0,7.714999999999999,0.02703366972971013,7.714999999999999,27.77801346801347,0.0
5.15,0.009600000000000004,1.4192,9.9828,0.00529,-0.0029099999999999994,-0.0015099999999999992,0.0,20.007999999999996,0.185,0.0,7.739999999999999,0.026999999999999996,7.739999999999999,27.859999999999996,0.0
5.166666666666667,-0.24071278423927106,1.6759512380938688,10.213416116493127,0.0002967067734306202,0.002306046335006638,0.011643477641181496,0.0,20.136923179863537,0.18500973307951607,0.0,7.764999999999998,0.026306400893108324,7.764999999999998,27.952996632996626,0.0
5.183333333333334,-0.1610464589434766,1.6606122131946448,9.800026576581825,0.000677752632038604,-0.0019604828536967174,0.0005958518176656098,0.0,20.26698644350533,0.18530560578834504,0.0,7.79,0.026033703833862207,7.79,28.04801346801347,0.0
5.2,0.49950000000000017,1.31,9.839,0.00327,0.00826,0.00204,0.0,20.397000000000002,0.18600000000000003,0.0,7.815000000000001,0.026,7.815000000000001,28.13,0.0
5.216666666666667,0.311559123162387,1.4933333118235788,9.599354698819372,-0.0009214322365464235,-0.001610372523481287,0.00430953295839546,0.0,20.52771654763109,0.18589814751229178,0.0,7.840000000000001,0.025303802959273144,7.840000000000001,28.222996632996633,0.0
5.233333333333333,-0.2117464490266986,1.5106389227797399,10.292750227052379,0.006392330092139389,0.005518208044389568,0.003032874004969194,0.0,20.658222274534648,0.18710185195784435,0.0,7.865,0.025009198998498017,7.865,28.318013468013476,0.0
5.25,0.018700000000000005,1.4806000000000001,10.150900000000002,0.0008300000000000004,0.008040000000000002,-0.005170000000000001,0.0,20.790000000000003,0.187,0.0,7.890000000000001,0.025,7.890000000000001,28.4,0.0
5.266666666666667,0.2460002072591823,1.7085606312608197,9.728744901254007,-0.00017976751388285028,0.003102549554511767,0.0010265123322100245,0.0,20.921555594488765,0.1876944309842091,0.0,7.915000000000001,0.02392544177829912,7.915000000000001,28.49299663299664,0.0
5.283333333333333,-0.19824296424945842,1.4104743609426458,10.188512741211028,-0.005104739340771785,0.0016485994561981272,-0.000637372156210711,0.0,21.054383089703745,0.18799061376938703,0.0,7.94,0.02397288792024499,7.94,28.588013468013465,0.0
5.3,0.2602,1.0432,9.2646,0.0013399999999999998,0.00962,-0.006940000000000002,0.0,21.187,0.188,0.0,7.965,0.024,7.965,28.67,0.0
5.316666666666666,0.4221093397075437,1.6549066923721871,9.827877534022385,-0.002385776601340298,-0.0076947642024868075,-0.008260387404552207,0.0,21.320329338801177,0.18907456066110534,0.0,7.989999999999998,0.02293560881143042,7.989999999999998,28.76299663299663,0.0
5.333333333333333,0.22912293600685324,1.56458301399456,9.82236587690229,0.0010893229970770297,-0.0031090291466226746,0.0006567893135070818,0.0,21.45368003920857,0.18902711233926184,0.0,8.015,0.023064391188574705,8.015,28.858013468013464,0.0
5.35,0.113,1.5536,9.9524,-0.00036999999999999967,-0.0018200000000000004,-0.00811,0.0,21.587,0.189,0.0,8.04,0.022,8.04,28.94,0.0
5.366666666666666,0.10866377041039682,1.5939866838732921,9.802594540616765,-0.005115750893735805,-0.005822896583568244,0.0017528574525344847,0.0,21.722114224567505,0.19006439111623857,0.0,8.064999999999998,0.022027112079397823,8.064999999999998,29.032996632996635,0.0
5.383333333333333,-0.2628627047242123,1.6886383218220609,10.018303492640722,0.00326970427194214,-0.004120756560900408,-0.007182905637632728,0.0,21.85582407884525,0.18993560816058996,0.0,8.09,0.02207455821833175,8.09,29.12801346801346,0.0
5.4,0.4728,1.6637,10.2332,-0.00424,0.0015500000000000002,0.0006100000000000004,0.0,21.991999999999997,0.19099999999999998,0.0,8.114999999999998,0.021,8.114999999999998,29.21,0.0
5.416666666666667,-0.18500133907288463,1.9752971463018965,9.797689874291871,-0.003907983740847172,-0.003554775960562571,0.00046751769525998205,0.0,22.12689800024175,0.1909729378488387,0.0,8.139999999999999,0.020990801260103133,8.139999999999999,29.30299663299663,0.0
5.433333333333334,-0.00449878973947802,1.3067016164715624,9.42351285863224,-0.0019226232906147016,-0.004696183724407621,0.005054299740101092,0.0,22.263353543498347,0.1909259127269441,0.0,8.165,0.020696199479967734,8.165,29.398013468013467,0.0
5.45,-0.1007,1.4512,10.148699999999998,-0.002060000000000001,-0.01079,-0.0033600000000000006,0.0,22.400000000000002,0.192,0.0,8.19,0.02,8.19,29.480000000000004,0.0
5.466666666666667,0.1596316443033555,1.656997912069972,9.780406842427034,0.0009467200078135908,-0.004254493153963483,-0.0058919651171737,0.0,22.53669656336975,0.19197305076896945,0.0,8.215000000000002,0.01996610893926607,8.215000000000002,29.57299663299664,0.0
5.483333333333333,-0.10286167204920534,0.9955209823955147,10.325368339121715,0.0004999285035479968,0.0012544396989266544,0.012958782693371505,0.0,22.673654872794156,0.19192579975408836,0.0,8.24,0.01969183309981854,8.24,29.66801346801347,0.0
5.5,0.15999999999999998,1.7616,9.989300000000002,-0.006830000000000001,-0.00198,-0.005900000000000001,0.0,22.811000000000003,0.19300000000000003,0.0,8.265,0.019,8.265,29.75,0.0
5.516666666666667,0.2050241967849089,1.6105922928077656,9.987871023367076,-0.004966190805313485,-0.007739958347937008,-0.0024188469356441894,0.0,22.949345675615554,0.19298274986173336,0.0,8.290000000000001,0.019101882266821805,8.290000000000001,29.842996632996634,0.0
5.533333333333333,-0.1739099058825449,1.4923145365803228,9.992428135758166,-0.0013270947596597754,0.009048137997579742,0.004381104332987251,0.0,23.087592627606913,0.19301728753530198,0.0,8.314999999999998,0.01789811773291028,8.314999999999998,29.938013468013466,0.0
5.55,0.2248,1.5335999999999999,10.0776,-0.00385,0.003,0.008660000000000001,0.0,23.227000000000004,0.193,0.0,8.34,0.018,8.34,30.020000000000003,0.0
5.566666666666666,-0.11369456102023787,1.6309487617747602,9.573994462031362,0.003480608224091767,0.0007650778010361272,0.004516405782898691,0.0,23.36592317986353,0.19407160489166478,0.0,8.364999999999998,0.017308166918774622,8.364999999999998,30.112996632996627,0.0
5.583333333333333,-0.13237387640733367,1.5450323112270952,9.941479890490083,-1.665584320028593e-05,0.0033169833865589757,0.00494427281665645,0.0,23.505986443505325,0.19400246913175087,0.0,8.389999999999999,0.01703389123610923,8.389999999999999,30.208013468013466,0.0
5.6,0.4690999999999999,1.5167,9.7656,0.0074800000000000005,-0.00267,-0.014400000000000001,0.0,23.646,0.194,0.0,8.415000000000001,0.017000000000000005,8.415000000000001,30.29,0.0
5.616666666666666,-0.11993238849577316,1.487485663757869,9.943886614066267,-0.0018334226964122524,0.006075111879646251,0.0003325415986088091,0.0,23.786716547631084,0.19469382709150623,0.0,8.44,0.016303787058893078,8.44,30.382996632996633,0.0
5.633333333333333,0.09446679515615482,1.4709180609210175,9.615623742001045,-0.0008485192075499127,0.0057855197632844585,0.004964265296306899,0.0,23.92722227453465,0.19497283885485037,0.0,8.465,0.016009071768448586,8.465,30.47801346801347,0.0
5.65,-0.45599999999999996,1.6629999999999998,10.1061,0.00662,-0.004029999999999999,0.00602,0.0,24.069,0.195,0.0,8.49,0.016,8.49,30.559999999999995,0.0
5.666666666666667,-0.0015043161938882253,1.766041788651943,9.773363620659024,-0.002878131577399399,-0.0034183008874767683,0.0038745879354579577,0.0,24.210555594488763,0.19489387715405954,0.0,8.515,0.014935187627864764,8.515,30.652996632996633,0.0
5.683333333333334,-0.0883858166467079,1.330010100474275,10.222553122957189,-0.008160623075816907,0.002975596884250265,0.005305800805331927,0.0,24.35338308970375,0.19610664440104014,0.0,8.540000000000001,0.015064815073780193,8.540000000000001,30.74801346801347,0.0
5.7,-0.1664,1.5124,9.8544,0.0026999999999999993,0.00877,-0.005090000000000002,0.0,24.496000000000002,0.19600000000000004,0.0,8.565,0.014000000000000002,8.565,30.83,0.0
5.716666666666667,0.10185360916693686,1.53057416705215,9.717926102887866,-0.0039907967481743085,0.0009536195420795728,-0.007331984647839606,0.0,24.639329338801186,0.19599096522123063,0.0,8.590000000000002,0.013990740737392548,8.590000000000002,30.92299663299664,0.0
5.733333333333333,-0.0027318392300683552,1.4296099364360717,9.704478199967024,-0.002340744271600253,0.004381224928373199,0.004415210902798859,0.0,24.782680039208575,0.1959277259031945,0.0,8.614999999999998,0.01369444444432902,8.614999999999998,31.018013468013468,0.0
5.75,-0.19330000000000008,1.4589,9.7384,-0.008840000000000002,-0.0042000000000000015,0.0012100000000000004,0.0,24.926,0.197,0.0,8.64,0.013,8.64,31.1,0.0
5.766666666666667,0.14226535339698834,1.1667464507756486,9.991493444101698,0.00022053281111537914,0.006752567236690974,-0.001337332529128353,0.0,25.071114224567527,0.19698063600830304,0.0,8.665000000000003,0.013101851833263596,8.665000000000003,31.192996632996635,0.0
5.783333333333333,-0.3466033215305568,1.5935403642467674,10.224993063892061,0.0008439201586872039,-0.006081333915411618,0.0033152092719653317,0.0,25.214824078845247,0.19699757946394275,0.0,8.69,0.011898147972772144,8.69,31.288013468013467,0.0
5.8,0.181,1.6717,9.930400000000002,-0.0033399999999999997,-0.0001299999999999997,-0.0014900000000000002,0.0,25.361,0.197,0.0,8.715,0.012,8.715,31.370000000000005,0.0
5.816666666666666,-0.36695835748557126,1.3249213973045164,9.525124071191646,0.0014091155747339463,0.0021477010933408343,0.0012988838850789641,0.0,25.505898000241743,0.19702856476739591,0.0,8.739999999999997,0.011305569016790633,8.739999999999997,31.462996632996624,0.0
5.833333333333333,-0.19194115041534793,1.5438367192740061,9.997058356986168,-0.00046670987694243907,-0.003398062762818922,0.008028091009198405,0.0,25.652353543498343,0.1973062236837476,0.0,8.765,0.011009386231611554,8.765,31.55801346801347,0.0
5.85,-0.07350000000000001,1.3866,9.7019,-0.00409,0.008929999999999999,0.005049999999999999,0.0,25.798999999999996,0.19800000000000004,0.0,8.79,0.010999999999999998,8.79,31.64,0.0
5.866666666666666,0.12085583651987367,1.49882486372275,9.345727161310174,0.0031801614516054582,0.002651470814257168,-0.004262007675548101,0.0,25.94569656336974,0.19800513906373143,0.0,8.814999999999998,0.009925439269599462,8.814999999999998,31.732996632996628,0.0
5.883333333333333,-0.06886674072532799,1.448263770261165,10.369312033681313,-0.004513747030012291,-0.007437522099762973,0.00018912229078001293,0.0,26.092654872794153,0.19800017720645793,0.0,8.84,0.009972887007127082,8.84,31.828013468013467,0.0
5.9,-0.0023000000000000173,1.2175,9.8931,-0.00592,0.0018999999999999998,-0.00149,0.0,26.239999999999995,0.198,0.0,8.865,0.010000000000000002,8.865,31.909999999999997,0.0
5.916666666666667,0.030347531900922667,1.4712476377978947,10.43578521430776,-0.0028660065371678744,-0.0005759039490269881,-0.002304215676625499,0.0,26.388345675615547,0.19802853086881322,0.0,8.889999999999999,0.008935659052455126,8.889999999999999,32.002996632996634,0.0
5.933333333333334,-0.3657237496481335,1.759189907936452,9.919473702189848,0.004749929976406743,-0.0034626036755305636,0.003942555651134634,0.0,26.536592627606915,0.19830621958145228,0.0,8.915,0.009064865052827978,8.915,32.09801346801347,0.0
5.95,0.058299999999999984,1.3199,10.4046,-0.01105,0.0006299999999999999,0.004790000000000001,0.0,26.686,0.199,0.0,8.940000000000001,0.008,8.940000000000001,32.18,0.0
5.966666666666667,0.1477903264572707,1.4255075928121117,10.039999902126743,0.01236153442091409,0.0037533586514654615,-0.004795101706883931,0.0,26.83492317986354,0.19900517858215316,0.0,8.965000000000002,0.007990740086226687,8.965000000000002,32.27299663299664,0.0
5.983333333333333,-0.32797555103370646,1.610794735609915,9.901797951219642,0.002648888556012317,0.000958138739642708,0.005879845547196378,0.0,26.984986443505328,0.1990005495258031,0.0,8.989999999999998,0.0076944443750548205,8.989999999999998,32.368013468013466,0.0
6.0,0.4295000000000001,1.8084000000000002,9.9539,0.00335,0.005039999999999999,0.004519999999999999,0.0,27.135,0.199,0.0,9.015,0.007,9.015,32.45000000000001,0.0
6.016666666666667,-0.6318253684510685,1.0839440551311275,9.783885645941801,0.0018154561656446827,-0.0010809448969518638,-0.0049299263169402955,0.0,27.285716547631093,0.1989999534300918,0.0,9.040000000000001,0.007101851852755865,9.040000000000001,32.54299663299664,0.0
6.033333333333333,-0.08812915379752748,1.7960511401126718,9.513572577745187,0.002832533248579557,0.002644600619013283,-0.0033973984879502642,0.0,27.436222274534646,0.19899962744084215,0.0,9.065,0.005898148148244004,9.065,32.63801346801346,0.0
6.05,0.0775,1.2903,9.5002,0.006220000000000001,0.005830000000000001,0.002120000000000001,0.0,27.588000000000005,0.199,0.0,9.090000000000002,0.006000000000000001,9.090000000000002,32.72,0.0
6.066666666666666,-0.003034678987513615,1.790255751506558,9.525596139719067,-0.0005225390883543873,0.0014300060011829385,-0.0010619485322555108,0.0,27.739555594488756,0.1990285380313795,0.0,9.114999999999998,0.0053055555555543395,9.114999999999998,32.81299663299663,0.0
6.083333333333333,-0.09907265511606816,1.4841020450328488,10.36969279830518,-0.0042462938609392304,-0.0038038017199379212,-0.0036774143452741764,0.0,27.892383089703745,0.19930622034150777,0.0,9.14,0.005009259259259127,9.14,32.90801346801346,0.0
6.1,-0.10519999999999999,1.6061,8.5569,0.00226,0.0018799999999999997,-0.0017299999999999998,0.0,28.045,0.2,0.0,9.165,0.005,9.165,32.99,0.0
6.116666666666666,0.18335517762177428,1.5678585207951172,9.557124012259385,-0.0019119710120398847,-0.00365747403374752,-0.0011460029966765184,0.0,28.198329338801173,0.20000517851781638,0.0,9.189999999999998,0.003935185185185183,9.189999999999998,33.082996632996625,0.0
6.133333333333333,-0.05347965328267108,1.37406455241325,10.329856264112134,0.00714199984943403,-0.0035314146433990438,-0.005896837755852947,0.0,28.351680039208567,0.2000005490112162,0.0,9.215,0.004064814814814801,9.215,33.17801346801347,0.0
6.15,0.19219999999999998,1.4002,10.2064,-0.0021999999999999997,-0.0031799999999999997,0.00116,0.0,28.504999999999995,0.2,0.0,9.24,0.003,9.24,33.25999999999999,0.0
6.166666666666667,-0.3992546599460268,1.5323640817148112,10.095067132623024,-0.0002045222690317086,-0.003441027789740308,0.0033144144226711692,0.0,28.66011422456752,0.19999999284733744,0.0,9.265,0.0029907407407407404,9.265,33.35299663299663,0.0
6.183333333333334,0.3851120021432612,1.5475694151938513,9.809753466007862,-0.0030075230550658844,0.0035446702076176654,-0.0014616800471363984,0.0,28.813824078845254,0.1999999992416958,0.0,9.29,0.0026944444444444125,9.29,33.448013468013464,0.0
6.2,0.042899999999999994,1.6289,9.875099999999998,-0.00336,0.00659,0.00208,0.0,28.970000000000002,0.20000000000000004,0.0,9.315,0.002,9.315,33.53,0.0
6.216666666666667,0.1140778825746065,1.4102981695325738,10.169290487201465,-0.0020327950977906918,0.0008904826945543464,0.005358849871532926,0.0,29.12489800024175,0.2000000000098794,0.0,9.340000000000003,0.0021018518518518383,9.340000000000003,33.62299663299664,0.0
6.233333333333333,-0.02675804657715731,1.3452603287164615,9.47654175359951,-0.0034401227965375897,0.00035981395781894976,-0.00025421552453216913,0.0,29.281353543498348,0.2000000000010474,0.0,9.365,0.0008981481481481626,9.365,33.71801346801347,0.0
6.25,-0.2275,1.4585,9.5599,0.00869,0.0017800000000000003,0.00232,0.0,29.438000000000002,0.20000000000000004,0.0,9.389999999999999,0.001,9.389999999999999,33.8,0.0
6.266666666666667,-0.3228693611069359,1.4417871026188023,10.22327198536872,0.001358173069600378,0.008596001376952494,0.0006490193282190752,0.0,29.59469656336976,0.19999999999998674,0.0,9.415000000000001,0.0003055555555555267,9.415000000000001,33.892996632996635,0.0
6.283333333333333,0.1710840900901223,1.48952296446111,9.592453964996903,0.008793094414877842,0.000748172479680093,-0.0017173913029673584,0.0,29.751654872794155,0.2000000000000022,0.0,9.440000000000001,9.25925925926035e-06,9.440000000000001,33.98801346801347,0.0
6.3,-0.2338,1.9437000000000002,9.0653,0.00372,0.005659999999999999,0.008390000000000002,0.0,29.909000000000002,0.20000000000000004,0.0,9.465,5.421010862427522e-20,9.465,34.07,0.0
6.316666666666666,6.548477289380905e-05,1.3127395344558257,9.820384698433978,-0.0027874702558936563,0.004604150021500012,-0.0005136583167828716,0.0,30.067345675615538,0.19999999999971937,0.0,9.489999999999997,-0.0010648148148148283,9.489999999999997,34.16299663299663,0.0
6.333333333333333,0.17789533983894204,1.4404948829166149,9.68649129235309,-0.0026220854269607225,-0.0006666892463349133,-0.0013215181638570987,0.0,30.225592627606908,0.19999999999735282,0.0,9.514999999999999,-0.0009351851851851921,9.514999999999999,34.258013468013466,0.0
6.35,0.009400000000000006,1.6122,10.3093,-0.0002899999999999999,-0.00386,-0.0018999999999999998,0.0,30.384999999999998,0.2,0.0,9.54,-0.002,9.54,34.34,0.0
6.366666666666666,0.3331880151835233,1.8466158772995223,9.485776718828282,0.003059181086331265,0.00921493861274365,0.0018077501704834842,0.0,30.543923179863526,0.20000000020318698,0.0,9.564999999999998,-0.0020092592592592566,9.564999999999998,34.43299663299663,0.0
6.383333333333333,-0.2713805038582009,1.4775595816834812,9.687094815818268,-0.001157319369377456,-0.0026907136889844975,0.0001361715652799074,0.0,30.703986443505325,0.20000000191655018,0.0,9.59,-0.002305555555555519,9.59,34.52801346801346,0.0
6.4,0.22439999999999993,1.7261,10.007100000000001,-0.00891,0.008260000000000002,-0.00694,0.0,30.864000000000004,0.19999999999999998,0.0,9.614999999999998,-0.003,9.614999999999998,34.61,0.0
6.416666666666667,0.3646337445507783,1.6525467821818027,9.793356055024518,-0.00032963624817449974,-0.00910266861063506,-0.0009874651129017384,0.0,31.024716547631083,0.19999985289288802,0.0,9.640000000000002,-0.00289814814814815,9.640000000000002,34.70299663299664,0.0
6.433333333333334,-0.09755869465617273,1.6041716819399128,10.547843536714673,-0.0005790615141293145,-0.00023845178030701896,-0.004968917321007734,0.0,31.18522227453465,0.19999861242033307,0.0,9.665000000000001,-0.004101851851851866,9.665000000000001,34.798013468013465,0.0
6.45,-0.1709,1.4903,9.442,-0.010010000000000002,-0.0024400000000000003,0.00255,0.0,31.347000000000005,0.2,0.0,9.69,-0.004000000000000001,9.69,34.88,0.0
6.466666666666667,-0.029515366232877458,1.4501027119736145,10.213420924888652,-0.004245130000805993,-0.0036291608092490083,9.21767554556927e-05,0.0,31.50855559448877,0.20010650534590524,0.0,9.715000000000002,-0.004694444444444473,9.715000000000002,34.97299663299664,0.0
6.483333333333333,-0.16328752802561558,1.678424175296506,10.156903121283891,0.004934522265951336,-0.0038713084796924337,0.0007266355112030583,0.0,31.67138308970375,0.198893494651167,0.0,9.739999999999998,-0.004990740740740741,9.739999999999998,35.06801346801347,0.0
6.5,-0.025399999999999992,1.8961,10.167600000000002,-0.00556,0.003540000000000001,-0.01371,0.0,31.834,0.19900000000000004,0.0,9.765,-0.005,9.765,35.15,0.0
6.516666666666667,-0.09967155491573021,1.3564156748474743,9.0262202515016,-0.0012584653906859912,0.001748057469891285,-0.00016146879993431077,0.0,31.997329338801187,0.19900138778285795,0.0,9.79,-0.00606481481481481,9.79,35.242996632996636,0.0
6.533333333333333,0.40572898520485046,1.7240550330235898,10.202359616707529,-0.00019061459028011678,0.004111346633289377,-0.0035659335308992246,0.0,32.160680039208565,0.19900014902366622,0.0,9.815,-0.005935185185185191,9.815,35.338013468013465,0.0
6.55,0.14000000000000004,1.1414,10.208100000000002,-0.009380000000000001,-0.0034100000000000003,0.00278,0.0,32.324,0.199,0.0,9.84,-0.007000000000000001,9.84,35.419999999999995,0.0
6.566666666666666,-0.1580677636693621,1.0387190688209758,9.953320691669798,-0.005450371586904603,0.00023036742265258387,0.0033882714338079813,0.0,32.489114224567516,0.19899985097605677,0.0,9.864999999999998,-0.007009259259259259,9.864999999999998,35.51299663299663,0.0
6.583333333333333,0.1437244619338635,1.6693763600624072,10.00830845653232,0.0014752559115789772,0.003734864496760329,0.0056407223413126985,0.0,32.65282407884524,0.19899861221449522,0.0,9.89,-0.007305555555555522,9.89,35.60801346801347,0.0
6.6,0.38020000000000004,1.5854,9.5984,-0.00208,-0.00665,0.0001200000000000001,0.0,32.819,0.199,0.0,9.915,-0.008,9.915,35.69,0.0
6.616666666666666,-0.3266786595779412,1.675126646915636,10.099024905470621,0.003196012828254216,0.005230743344664479,0.0019240618337812037,0.0,32.983898000241744,0.19910650555202544,0.0,9.939999999999998,-0.007898148148148147,9.939999999999998,35.782996632996635,0.0
6.633333333333333,-0.4224875734890602,1.0251639855124703,9.736062298333728,-0.007855776504066199,0.005361202156724569,-0.004624819357401148,0.0,33.15035354349835,0.19789349657069588,0.0,9.965,-0.009101851851851875,9.965,35.878013468013464,0.0
6.6499999999999995,0.0038000000000288914,1.6854999999999662,9.768600000000012,0.0018200000000003409,0.0017299999999999844,-0.003279999999999583,0.0,33.31699999999999,0.198,0.0,9.99,-0.009000000000000011,9.99,35.959999999999994,0.0
6.666666666666667,-0.09784196115988662,1.453325601277529,9.863162562408597,0.004354491337868366,-0.0014404008116672765,0.0007457757238368421,0.0,33.483696563369755,0.19800124046864598,0.0,10.014999999999999,-0.009694444444442632,10.014999999999999,36.05299663299663,0.0
6.683333333333334,-0.11188792254058244,1.274353684468686,9.659294957260434,-0.0012523262270679753,0.003866996257073695,-0.0040463223981205484,0.0,33.650654872794156,0.1979987594905747,0.0,10.040000000000001,-0.009990740740723349,10.040000000000001,36.14801346801347,0.0
6.7,0.36849999999999994,1.6438,10.312800000000001,0.0029300000000000003,-0.00493,0.004360000000000001,0.0,33.818000000000005,0.198,0.0,10.065000000000001,-0.010000000000000002,10.065000000000001,36.23,0.0
6.716666666666667,-0.418704423624664,1.2780713614768398,9.36663916996941,-0.00881737107437549,0.0029472220802445625,-0.006134945151017282,0.0,33.98634567561555,0.19810650625938503,0.0,10.090000000000002,-0.01106481481614972,10.090000000000002,36.32299663299664,0.0
6.733333333333333,0.22187312249449956,1.3337536443417422,10.173040496964692,0.00908922416027454,0.00042128549994823356,0.005072976337486714,0.0,34.15459262760692,0.19689352114208045,0.0,10.114999999999998,-0.010935185197776658,10.114999999999998,36.41801346801347,0.0
6.75,-0.43540000000000006,1.5221,9.62,0.0036900000000000014,0.00896,0.00021000000000000023,0.0,34.324,0.197,0.0,10.140000000000002,-0.011999999999999999,10.140000000000002,36.50000000000001,0.0
6.766666666666667,-0.21777014939782058,1.7784049857975763,9.544833935290171,0.004171055399031556,-0.00042579269280231674,0.0011237728719753752,0.0,34.49292317986354,0.19699933884772655,0.0,10.165000000000003,-0.012009258292786068,10.165000000000003,36.59299663299664,0.0
6.783333333333333,0.04925094021118912,1.8438522565621713,9.797400055116107,0.003309960114327905,0.004063783262109872,0.0017325651690018745,0.0,34.662986443505325,0.19698082253210353,0.0,10.19,-0.012305546439350789,10.19,36.68801346801347,0.0
6.8,-0.36860000000000004,1.3937999999999997,10.042400000000002,0.008220000000000002,0.0009699999999999999,-0.013670000000000002,0.0,34.833,0.197,0.0,10.215000000000002,-0.013,10.215000000000002,36.77,0.0
6.816666666666666,-0.1674925975345346,1.651248550705622,9.655962050321993,0.0038610399533301597,0.004257428249355656,0.0011641265816598131,0.0,35.00371654763108,0.1959277235421591,0.0,10.239999999999997,-0.012898847873405062,10.239999999999997,36.86299663299663,0.0
6.833333333333333,-0.02146865021067975,1.4556237157491687,10.14689367305268,0.0021589123256683597,0.004687040139814314,0.0010887301940155246,0.0,35.17422227453465,0.1959909656149805,0.0,10.264999999999997,-0.014108451971490433,10.264999999999997,36.95801346801346,0.0
6.85,0.5090000000000001,1.7109,10.227600000000002,0.00152,0.00275,0.00403,0.0,35.346,0.196,0.0,10.29,-0.013999999999999999,10.29,37.04,0.0
6.866666666666666,-0.24182997632100456,1.4261665255497544,9.52581940934876,-0.0048413890175766465,-0.0014674450260590637,0.00025673015469778777,0.0,35.517555594488755,0.19610659440685216,0.0,10.314999999999998,-0.013891548028604152,10.314999999999998,37.13299663299662,0.0
6.883333333333333,0.4769295901004094,1.5154405040105332,9.836269543653836,0.001386404990657196,-0.002927881524503206,0.002984922511805848,0.0,35.69038308970375,0.19489340555535264,0.0,10.339999999999996,-0.015101152127498811,10.339999999999996,37.228013468013465,0.0
6.8999999999999995,0.1547000000000023,1.4967999999999724,9.417999999999964,0.003540000000000078,-0.0010400000000002898,0.0012800000000004717,0.0,35.86299999999999,0.195,0.0,10.365,-0.015000000000000012,10.365,37.31,0.0
6.916666666666667,-0.17008973126674398,1.3820721364724622,10.06198928486135,-0.004808354190808777,0.009558696543256787,0.0025965747506092314,0.0,36.03632933880118,0.19500903700800576,0.0,10.39,-0.015694453491259565,10.39,37.40299663299663,0.0
6.933333333333334,0.3140935656696974,1.5296365658145996,9.679786351195784,0.008040541105019483,-0.0007663719552293466,-0.004065591704782245,0.0,36.20968003920857,0.19507230119857272,0.0,10.415000000000001,-0.015990741052699903,10.415000000000001,37.49801346801347,0.0
6.95,-0.6904000000000001,1.134,9.702000000000002,0.006059999999999999,-0.0013700000000000006,0.007610000000000001,0.0,36.383,0.194,0.0,10.44,-0.016000000000000004,10.44,37.580000000000005,0.0
6.966666666666667,0.17459170974141544,1.3938251868964997,10.351134647312751,-0.005461287948031377,-0.0028507041438555563,-4.9812558879941014e-05,0.0,36.558114224567525,0.19401727846365785,0.0,10.465000000000003,-0.017064865040234654,10.465000000000003,37.67299663299663,0.0
6.983333333333333,0.10539923540100032,1.3403191795569889,9.99998996837623,-0.00130260946957352,0.003157103036680476,0.004110138417193994,0.0,36.73182407884525,0.1939827489002223,0.0,10.489999999999998,-0.016935659051102826,10.489999999999998,37.768013468013464,0.0
7.0,0.2893000000000001,1.5321000000000002,10.142700000000001,-0.010290000000000002,-0.0033,0.004420000000000001,0.0,36.908,0.19399999999999998,0.0,10.515000000000002,-0.018,10.515000000000002,37.85000000000001,0.0
7.016666666666667,-0.08938589929284103,1.3801666245349389,10.084614949623342,0.003504161898970856,0.007504807311660741,0.005613273434092727,0.0,37.08289800024175,0.19292579974814694,0.0,10.540000000000001,-0.017972887008479373,10.540000000000001,37.94299663299664,0.0
7.033333333333333,0.009782226238411115,1.3577515089942644,9.87706543332464,0.004072048199315129,-0.007635485860879731,-0.0037742519732690957,0.0,37.25935354349834,0.19297305059606756,0.0,10.565,-0.017925439282192694,10.565,38.038013468013474,0.0
7.05,0.1547,1.4137000000000004,9.8177,-0.00018999999999999985,0.0024999999999999996,0.0007899999999999999,0.0,37.43600000000001,0.193,0.0,10.59,-0.019000000000000003,10.59,38.120000000000005,0.0
7.066666666666666,0.06537345235378776,1.4962905016650891,9.73970478836973,0.0013643693892736411,-0.0012957154246291027,0.004390957386821269,0.0,37.612696563369745,0.1919259261001793,0.0,10.614999999999998,-0.01900938526514522,10.614999999999998,38.21299663299662,0.0
7.083333333333333,0.28818748649907555,1.3228586789671977,9.530947415703134,0.00564712057305544,-0.0024975619822408595,0.005063105044380298,0.0,37.789654872794145,0.1919730639912986,0.0,10.639999999999999,-0.019305559900650738,10.639999999999999,38.30801346801347,0.0
7.1,-0.006699999999999998,1.3869,9.7227,-0.00618,0.00264,-0.00442,0.0,37.967,0.192,0.0,10.665,-0.02,10.665,38.38999999999999,0.0
7.116666666666666,-0.015630641886262335,1.7015323921622993,9.71690715957462,-0.0005731552886612681,-0.004784988028267333,0.000236911840450277,0.0,38.14534567561553,0.19092592594425245,0.0,10.689999999999998,-0.01989884769304678,10.689999999999998,38.48299663299663,0.0
7.133333333333333,-0.3864076367535342,1.4133908446835104,9.774764856876686,-0.0028673430914815984,-0.001080379737509765,-0.0026249112692183496,0.0,38.32359262760691,0.19097306414817306,0.0,10.715,-0.021108451905907127,10.715,38.57801346801346,0.0
7.1499999999999995,-0.15969999999999318,1.372500000000001,9.846100000000009,-0.0024699999999995064,-0.002700000000000673,0.006610000000000017,0.0,38.50299999999999,0.19100000000000006,0.0,10.740000000000002,-0.020999999999999994,10.740000000000002,38.65999999999999,0.0
7.166666666666667,0.09607793999257601,1.4641723876368018,9.655252420355106,0.002423392934778295,0.008668159001281097,-0.0027469817249363366,0.0,38.68192317986353,0.18992591248325844,0.0,10.764999999999999,-0.020891551635651928,10.764999999999999,38.75299663299664,0.0
7.183333333333334,-0.3531029214012999,1.606332733137014,9.509759168541402,-0.0031344260441201004,-0.007914915467718392,0.008477098314168003,0.0,38.86198644350532,0.18997293717584632,0.0,10.79,-0.022101186148517506,10.79,38.84801346801346,0.0
7.2,0.3187,1.3151000000000002,9.4617,-0.00473,-0.005760000000000001,-0.0002999999999999999,0.0,39.042,0.19,0.0,10.815,-0.022,10.815,38.93,0.0
7.216666666666667,-0.03476828311178832,1.6895515513912664,9.694184947778707,-0.0022966628238811487,4.638961937742677e-05,-0.004707328171617433,0.0,39.222716547631094,0.18893565839884385,0.0,10.840000000000003,-0.022691842169030953,10.840000000000003,39.02299663299664,0.0
7.233333333333333,-0.07246986130687748,1.7725474011479576,9.865323045057956,0.0013355027380693248,0.005429178365600374,0.005196842922480405,0.0,39.40322227453464,0.18906486498353403,0.0,10.865,-0.022966109900757276,10.865,39.11801346801347,0.0
7.25,0.08580000000000002,1.4529,9.6919,-0.0012699999999999999,-0.0013300000000000002,0.0005799999999999998,0.0,39.585,0.188,0.0,10.89,-0.023,10.89,39.20000000000001,0.0
7.266666666666667,-0.0375520781645248,1.5527451458259056,9.858867610073329,-0.0024669158524091117,-0.00280868787491803,-0.0037507553574148544,0.0,39.76655559448877,0.18799074008713,0.0,10.915,-0.023696199467441104,10.915,39.29299663299664,0.0
7.283333333333333,0.2050195446236849,1.48233031722322,9.403130283558513,0.001933036274509385,0.0027538528471435435,-0.0047458186346246295,0.0,39.949383089703744,0.1876944443751552,0.0,10.94,-0.023990801258773863,10.94,39.38801346801347,0.0
7.3,0.03279999999999998,1.61,9.736900000000002,-0.005579999999999999,0.0034100000000000003,-0.005490000000000001,0.0,40.132000000000005,0.18700000000000003,0.0,10.965,-0.024,10.965,39.47,0.0
7.316666666666666,-0.1748308294782861,1.4107073150955518,10.043643136888567,0.004451517745972023,0.00086326145082966,-0.0007106078749602462,0.0,40.31532933880117,0.18710185185239694,0.0,10.989999999999998,-0.025074558218444298,10.989999999999998,39.56299663299663,0.0
7.333333333333333,0.42150473893667223,1.5933066329566374,9.67894425115364,0.0014084567394751623,-0.0024023434012368228,0.0015162189160344707,0.0,40.498680039208566,0.18589814814487032,0.0,11.014999999999999,-0.025027112080297776,11.014999999999999,39.65801346801346,0.0
7.35,-0.01469999999999995,1.3622999999999998,10.680099999999998,-0.004030000000000001,0.00247,-0.00013000000000000012,0.0,40.682,0.18599999999999997,0.0,11.039999999999997,-0.025,11.039999999999997,39.74,0.0
7.366666666666666,-0.48352367584785294,1.654880947213986,9.925953134462869,-0.008282302601577184,0.008275175251846,0.001971967939640999,0.0,40.86711422456751,0.1853055558144944,0.0,11.065,-0.026064391119637938,11.065,39.83299663299663,0.0
7.383333333333333,0.1623827985818179,1.4829970518024729,10.060357807150332,0.0041279880490799606,-0.006059452573810669,-0.004916306203736816,0.0,41.050824078845245,0.1850092617016966,0.0,11.09,-0.02593560816118839,11.09,39.92801346801346,0.0
7.3999999999999995,0.13450000000003434,1.7590000000000112,9.85749999999994,-0.005640000000000554,0.0004899999999995494,-0.0018699999999998152,0.0,41.236999999999995,0.18500000000000005,0.0,11.114999999999998,-0.02699999999999994,11.114999999999998,40.00999999999999,0.0
7.416666666666667,0.11282029147580333,1.4876572723375145,9.797731956447121,-0.003571471240582078,-0.005991254898914154,-0.0008149211655177821,0.0,41.42189800024175,0.18393499771295874,0.0,11.14,-0.02697293783035568,11.14,40.10299663299662,0.0
7.433333333333334,0.1286453841345107,1.5041241583539255,9.478029297937816,0.001910417948631708,0.0008571179511757614,-0.0014390459289837295,0.0,41.60835354349834,0.1840630464934468,0.0,11.165000000000001,-0.026925912552647268,11.165000000000001,40.198013468013464,0.0
7.45,0.24410000000000004,1.3192,10.1329,0.0013200000000000006,0.0010500000000000002,-0.00046,0.0,41.795,0.183,0.0,11.19,-0.028000000000000004,11.19,40.28,0.0
7.466666666666667,0.176169684433598,1.5917946211748812,9.807999286680445,0.001937480782590574,0.0025700382283134135,-0.001860155215617404,0.0,41.98169656336975,0.18312647037375837,0.0,11.215000000000002,-0.027973064147294575,11.215000000000002,40.37299663299664,0.0
7.483333333333333,0.3060961250476103,1.372497485135355,9.97676381920574,-0.004630582858598173,-0.0008083885217712535,-0.005824811582480876,0.0,42.16865487279416,0.18190063259836037,0.0,11.239999999999998,-0.02792592594439734,11.239999999999998,40.468013468013474,0.0
7.5,-0.07060000000000005,1.6565000000000003,9.636,0.0050100000000000006,-0.0006799999999999999,0.0007000000000000001,0.0,42.35600000000001,0.182,0.0,11.265,-0.029,11.265,40.55,0.0
7.516666666666667,0.1446281786113273,1.4897147748266164,8.972491894299422,-0.004146096836685825,-0.005344570548182693,-0.00193122124594174,0.0,42.54434567561555,0.18131526650077076,0.0,11.290000000000001,-0.028973063972823364,11.290000000000001,40.64299663299663,0.0
7.533333333333333,-0.21578806675424705,1.549622529572793,9.443998930434896,0.0039660161209076235,0.0007250606999482257,-0.0037118127991889907,0.0,42.732592627606905,0.18110117451588154,0.0,11.315,-0.028925925925900757,11.315,40.73801346801347,0.0
7.55,-0.3407,1.196,10.034100000000002,0.0028199999999999996,0.010090000000000002,-7.999999999999994e-05,0.0,42.922,0.18,0.0,11.34,-0.03,11.34,40.82000000000001,0.0
7.566666666666666,0.09291788984817283,1.5365935895464164,10.034321092379255,0.005225888237294245,0.0012775571744252034,-0.0023552923520958726,0.0,43.110923179863526,0.17999095343856256,0.0,11.365,-0.029973063973038783,11.365,40.91299663299663,0.0
7.583333333333333,-0.23712468386194457,1.6035244374976174,9.784169805183849,-0.00023879238247136452,-0.0015166693518375086,0.004815796713911244,0.0,43.30098644350532,0.17970086975527547,0.0,11.389999999999997,-0.029925925925685312,11.389999999999997,41.00801346801346,0.0
7.6,-0.2322,1.4108,9.9718,-0.004270000000000001,-0.00817,0.00409,0.0,43.491,0.17899999999999996,0.0,11.415,-0.031,11.415,41.09,0.0
7.616666666666666,0.12500475649480705,1.6099300972765094,9.375766852762025,0.009502272295123891,-0.0007879348468200376,-0.0029171158367299744,0.0,43.681716547631076,0.17830851805398024,0.0,11.439999999999998,-0.030973063991535505,11.439999999999998,41.18299663299664,0.0
7.633333333333333,0.04207770131857947,1.3433254629040858,9.547547301654735,0.0018178169362853486,-0.0034564499698217766,0.002213510445984777,0.0,43.87222227453465,0.17809875229432426,0.0,11.465,-0.030925926100157684,11.465,41.27801346801346,0.0
7.6499999999999995,0.033500000000031616,1.4494000000000091,9.55819999999995,-0.000259999999999615,0.0025200000000000448,3.0000000001195086e-05,0.0,44.06399999999999,0.17700000000000007,0.0,11.489999999999998,-0.031999999999999945,11.489999999999998,41.36,0.0
7.666666666666667,-0.06509122172086658,1.7800715378203578,10.036570100516462,-0.0011810299069681058,-0.00017606141031114761,0.0050097507370941655,0.0,44.255555594488754,0.17712345696128579,0.0,11.514999999999999,-0.031973050599696955,11.514999999999999,41.45299663299663,0.0
7.683333333333334,0.2135578180971837,1.4560996791934138,9.947165278273074,0.003501552733989329,0.0017160771321392302,-0.0078047670146692855,0.0,44.44838308970376,0.17587654322802257,0.0,11.54,-0.031925799782383975,11.54,41.54801346801347,0.0
7.7,-0.16650000000000004,1.1572,9.777100000000003,0.0003299999999999998,-0.0016199999999999997,0.0014499999999999995,0.0,44.641000000000005,0.176,0.0,11.565000000000001,-0.03300000000000001,11.565000000000001,41.63,0.0
7.716666666666667,0.042558287943876554,1.607535780044675,9.426898891830671,-0.0027199529834314932,-0.002337678162113223,0.0036986932918346236,0.0,44.83432933880119,0.17490123456767154,0.0,11.590000000000002,-0.03298274627231326,11.590000000000002,41.72299663299664,0.0
7.733333333333333,-0.05230096664406235,1.4731030973682187,10.027291228622985,-0.0028175519004550965,0.0040654951897381095,0.006345585952525256,0.0,45.02768003920857,0.17469135802472968,0.0,11.615000000000002,-0.03301725367605206,11.615000000000002,41.81801346801346,0.0
7.75,0.35840000000000005,1.6557000000000002,9.582599999999998,0.002310000000000001,0.01178,-0.011700000000000002,0.0,45.221000000000004,0.17400000000000002,0.0,11.640000000000002,-0.033,11.640000000000002,41.900000000000006,0.0
7.766666666666667,0.05765371332658198,1.5538792653898161,9.898987769651711,-0.005402639718163779,-0.006841245515973995,0.002024083752394349,0.0,45.41611422456752,0.1733086419704462,0.0,11.665000000000001,-0.03407420380106338,11.665000000000001,41.992996632996636,0.0
7.783333333333333,-0.024857967792294135,1.4476763447458867,9.598674087567973,0.0030167639363801618,-0.0027601500581325255,-0.006378721872807679,0.0,45.60982407884524,0.17309876538623145,0.0,11.690000000000001,-0.03402698320037007,11.690000000000001,42.08801346801347,0.0
7.8,0.0941,1.6177,9.6323,-0.0032400000000000003,0.00358,0.009499999999999998,0.0,45.806,0.172,0.0,11.715000000000002,-0.034,11.715000000000002,42.17,0.0
7.816666666666666,-0.014639328992802746,1.1661501518074053,9.748266991443368,-0.005485928103019874,0.0006053576532565768,0.0003505959004436249,0.0,46.00089800024174,0.1721234603107268,0.0,11.74,-0.03507147953557789,11.74,42.262996632996625,0.0
7.833333333333333,0.039369648257788804,1.7325603436505275,9.430247149954543,0.005205276776032027,0.0011605543055951003,0.008427568478760212,0.0,46.19735354349835,0.17087657641777226,0.0,11.764999999999997,-0.03500246481157502,11.764999999999997,42.35801346801347,0.0
7.85,0.07160000000000001,1.2483,9.809500000000002,0.0018700000000000001,-0.00254,-0.0036,0.0,46.394,0.171,0.0,11.79,-0.035,11.79,42.44,0.0
7.866666666666666,-0.18852767067852377,1.9816293445459523,9.99441412904617,0.0008871788973202019,-0.0005236213676689876,-0.002099589747645521,0.0,46.59069656336974,0.1698986856559309,0.0,11.815,-0.03569313095906995,11.815,42.53299663299663,0.0
7.883333333333333,-0.3607636671426356,1.316523741164692,10.294470826827036,-0.0001241868207433561,0.0010784624367176571,0.005503587694812971,0.0,46.78765487279414,0.1696673155540418,0.0,11.839999999999998,-0.03596627099708793,11.839999999999998,42.628013468013464,0.0
7.8999999999999995,0.17759999999999276,1.1559000000000068,9.491800000000019,-0.0028499999999991874,-0.01110999999999984,0.002539999999999396,0.0,46.98499999999999,0.16900000000000004,0.0,11.864999999999998,-0.03600000000000002,11.864999999999998,42.71,0.0
7.916666666666667,-0.19650117384004057,1.6111043969177583,9.654610986518051,-0.001839371334947857,0.011053919946846099,0.008441270284183145,0.0,47.18334567561554,0.16789479146197592,0.0,11.889999999999999,-0.03669429869032258,11.889999999999999,42.80299663299663,0.0
7.933333333333334,0.14301425190566064,1.7477732753202881,10.315174227279918,-0.005798833372693897,0.0018719007694701013,-0.008347652115615303,0.0,47.38159262760691,0.16769066615967843,0.0,11.915000000000001,-0.036972888852317386,11.915000000000001,42.898013468013474,0.0
7.95,-0.15700000000000003,1.9182000000000001,9.8029,0.00468,0.00235,0.006429999999999999,0.0,47.581,0.167,0.0,11.94,-0.037000000000000005,11.94,42.980000000000004,0.0
7.966666666666667,-0.3227558024619867,1.2324539536619004,10.24821681707699,0.001693963901469594,8.409836942368978e-05,-0.005542318223088116,0.0,47.779923179863545,0.16630933291055258,0.0,11.965000000000002,-0.03689387650666244,11.965000000000002,43.07299663299664,0.0
7.983333333333333,0.2960563985653025,1.5639138158258021,9.73052936326295,0.0031125116140310405,0.0035076026890074902,0.007928025491669943,0.0,47.979986443505325,0.16610519965356507,0.0,11.99,-0.03810664436955868,11.99,43.16801346801347,0.0
8.0,-0.27760000000000007,1.6790000000000003,10.226500000000001,-0.00817,-0.0024400000000000003,-0.004600000000000001,0.0,48.18,0.16500000000000004,0.0,12.015,-0.038,12.015,43.25,0.0
8.016666666666666,-0.3794830288862676,1.3735109296399655,9.770043079349147,-0.0016664192548986585,-0.008306694965359898,0.0005637898982393312,0.0,48.380716547631074,0.16433336648315183,0.0,12.039999999999996,-0.03799096233793711,12.039999999999996,43.342996632996616,0.0
8.033333333333333,0.44470133495062536,1.4928648075377886,9.578866770351942,-0.002959945556179509,0.0011196783149711794,-0.003906507557282136,0.0,48.58122227453466,0.1641077476221903,0.0,12.065000000000001,-0.037927698698297554,12.065000000000001,43.43801346801347,0.0
8.05,-0.24349999999999997,1.6014000000000002,9.8086,-0.0005400000000000001,0.0014000000000000002,-0.00104,0.0,48.783,0.16300000000000003,0.0,12.09,-0.039,12.09,43.52,0.0
8.066666666666666,0.07616871612353712,1.523484838852827,9.501760400812966,0.004062465534068769,0.005814167662847569,-0.006210086620757744,0.0,48.98455559448875,0.16233333328754623,0.0,12.114999999999995,-0.03898272416020009,12.114999999999995,43.61299663299662,0.0
8.083333333333334,0.27778080087884777,1.398180341631837,9.950640013017003,0.0015788118008195962,0.0032634454200826403,0.0004019644992540207,0.0,49.187383089703744,0.1621077441028899,0.0,12.139999999999997,-0.03901727584079351,12.139999999999997,43.708013468013455,0.0
8.1,-0.035699999999999996,1.4048,9.530000000000001,-0.00629,-0.0025900000000000007,0.00081,0.0,49.39,0.161,0.0,12.165,-0.039,12.165,43.790000000000006,0.0
8.116666666666667,0.1024177406395223,1.5697064816398414,9.610493398732158,-0.007124923707310249,0.001354492248165369,-0.006082928321485244,0.0,49.593329338801205,0.16033333333339636,0.0,12.190000000000003,-0.040072301232745904,12.190000000000003,43.88299663299665,0.0
8.133333333333333,0.12162475468136279,1.7291530361962526,9.71084158306269,-0.002778316755756893,0.00047028199011263117,-0.006867271384266709,0.0,49.79668003920857,0.16010774410774956,0.0,12.215,-0.04000903701164581,12.215,43.97801346801346,0.0
8.15,-0.0006000000000000241,1.7239,9.6768,-0.0023199999999999996,-0.0015700000000000002,-0.00152,0.0,50.0,0.159,0.0,12.239999999999998,-0.04,12.239999999999998,44.06000000000001,0.0
8.166666666666666,0.0018796534816847774,1.6207520835005202,10.02980039856526,-0.0007039977380873959,-0.0016032220010272164,0.000335376561451238,0.0,50.2051142245675,0.15833333333342853,0.0,12.264999999999997,-0.03989340555397741,12.264999999999997,44.15299663299662,0.0
8.183333333333334,-0.0868994865051879,1.458558489290084,9.674327923656113,0.0003228897373264504,-0.0036483470026528915,0.0008847399322733207,0.0,50.40882407884526,0.15810774410864215,0.0,12.289999999999997,-0.0411065943943203,12.289999999999997,44.24801346801346,0.0
8.2,0.09180000000000002,1.6661000000000001,10.9299,-0.004520000000000001,0.0005300000000000001,0.013580000000000002,0.0,50.615,0.15699999999999997,0.0,12.315,-0.04100000000000001,12.315,44.33,0.0
8.216666666666667,-0.36564241692220545,1.4725369158413886,10.005895817734318,0.006981137934462132,-0.0020399116532355236,-0.0029885910580068364,0.0,50.819898000241736,0.15633333326440396,0.0,12.34,-0.04099096657649234,12.34,44.42299663299663,0.0
8.233333333333333,0.37526643804724374,1.8960710881671006,9.847060208465466,0.0029339247088448614,-0.0053333483651271125,-0.0034466618040465604,0.0,51.02635354349833,0.1561077434575711,0.0,12.364999999999997,-0.04092773261156561,12.364999999999997,44.51801346801345,0.0
8.25,0.3623,1.4271000000000003,9.8546,-0.0011600000000000004,0.0005700000000000006,-0.005380000000000001,0.0,51.233000000000004,0.15500000000000003,0.0,12.39,-0.04200000000000001,12.39,44.6,0.0
8.266666666666666,0.08818945746497936,1.2620912177081547,9.610001635857307,0.003417910965335625,0.006285925610306687,0.002900845731314181,0.0,51.43969656336974,0.1543333832381393,0.0,12.414999999999997,-0.0419801263989043,12.414999999999997,44.692996632996625,0.0
8.283333333333333,0.061253895849710194,1.4430255295998344,10.24562188809865,0.0009156210591441166,-0.0024403996088564503,-0.003070853060867347,0.0,51.646654872794166,0.15410821483205553,0.0,12.440000000000001,-0.04199277260997302,12.440000000000001,44.788013468013474,0.0
8.3,0.1057,1.1621,9.4006,-0.00534,0.0034900000000000005,-0.008159999999999999,0.0,51.854,0.15300000000000002,0.0,12.465000000000002,-0.042,12.465000000000002,44.87,0.0
8.316666666666666,0.2124048419129033,1.3588436856979127,10.008790191952325,-0.0018164546151988844,0.003682362382930085,-0.01469927396944893,0.0,52.06234567561553,0.15229720232276228,0.0,12.489999999999997,-0.042693816913088885,12.489999999999997,44.962996632996614,0.0
8.333333333333334,-0.16028703324780189,1.7272936297048898,10.170203919197913,0.005698650692450607,-0.004814742230062595,0.013485388983100668,0.0,52.2705926276069,0.15172990331941946,0.0,12.514999999999999,-0.042971564434634436,12.514999999999999,45.05801346801346,0.0
8.35,0.1238,1.3314,9.852,-0.003720000000000001,-0.00222,0.0065400000000000015,0.0,52.480000000000004,0.151,0.0,12.540000000000003,-0.043,12.540000000000003,45.14,0.0
8.366666666666667,0.1120309235368542,1.6556432999620834,9.966673464745936,-0.0016669917833890512,0.0012325980368766512,0.005482397039404412,0.0,52.68892317986355,0.15026991285978747,0.0,12.565000000000003,-0.042992724820985345,12.565000000000003,45.232996632996645,0.0
8.383333333333333,-0.06821589849266751,1.6079495270050106,9.819207279313583,-0.003103166838118461,-0.008628448047870088,-0.0031222521858805296,0.0,52.898986443505315,0.14970104116743949,0.0,12.590000000000003,-0.04292791004801874,12.590000000000003,45.328013468013474,0.0
8.4,-0.057999999999999996,1.7685999999999997,9.896100000000002,0.0009099999999999997,-0.003959999999999999,-0.00321,0.0,53.10900000000001,0.14899999999999997,0.0,12.614999999999998,-0.04399999999999999,12.614999999999998,45.41,0.0
8.416666666666666,0.23516207296510075,1.6513330676609212,9.988347257882523,0.002418505788323589,-0.005320748488424079,-0.0007769232989755798,0.0,53.31971654763107,0.14802662793177362,0.0,12.639999999999997,-0.04398082010092828,12.639999999999997,45.50299663299663,0.0
8.433333333333334,-0.04207282837262656,1.61296363343026,9.875014746650402,0.005160066031842027,-0.007497019260228819,0.0018640824839015397,0.0,53.53022227453466,0.14686443960265097,0.0,12.665,-0.04399933857759473,12.665,45.59801346801347,0.0
8.45,0.3198,1.2399,9.9609,0.0017499999999999998,0.0029700000000000004,-0.0005699999999999998,0.0,53.742000000000004,0.147,0.0,12.690000000000001,-0.044,12.690000000000001,45.68,0.0
8.466666666666667,-0.29476434289453074,1.0574897876399227,9.94880071721339,-0.003126384148016076,-0.005848840566045581,-0.004229928581352481,0.0,53.953555594488755,0.14604405712867324,0.0,12.715,-0.0438935221069274,12.715,45.77299663299663,0.0
8.483333333333333,-0.1266267300940288,1.5808835731826678,9.693912442083416,-0.0007601957708638239,-0.00044145939885217324,0.0005669042113955609,0.0,54.16638308970373,0.14496320503174445,0.0,12.739999999999997,-0.045106515328949874,12.739999999999997,45.86801346801346,0.0
8.5,0.5017,1.7596,10.157200000000001,-0.00121,-0.0009200000000000002,-0.0043300000000000005,0.0,54.379,0.144,0.0,12.765,-0.045,12.765,45.95000000000002,0.0
8.516666666666666,0.1992925530407345,1.35750512548368,9.536100146295107,0.002127321079212336,-0.0035683113240480833,0.004414845828257348,0.0,54.592329338801164,0.1433352701680622,0.0,12.789999999999997,-0.04499806337252113,12.789999999999997,46.04299663299662,0.0
8.533333333333333,-0.10910791684984347,1.5432553082577998,9.743673481202565,-0.004852402000197075,0.0030854758805567463,-0.002275324126176445,0.0,54.805680039208575,0.1431084507476682,0.0,12.815,-0.04499467437379576,12.815,46.138013468013476,0.0
8.55,-0.0519,1.4002000000000001,9.899200000000002,-0.0035,-0.0005400000000000001,-0.00023999999999999998,0.0,55.019000000000005,0.14200000000000002,0.0,12.840000000000002,-0.045,12.840000000000002,46.220000000000006,0.0
8.566666666666666,-0.04110702155346451,1.2239993621951035,10.433856328096045,0.0009603672427814956,0.009232535473499079,-0.0014962288542699736,0.0,55.2341142245675,0.14129441526842024,0.0,12.864999999999997,-0.045693781372953705,12.864999999999997,46.31299663299663,0.0
8.583333333333334,-0.1945748039559824,1.5953991740709133,9.521427907990798,0.0007225772470457229,0.0006895144685718706,0.0006414668441794884,0.0,55.447824078845244,0.14070363884163875,0.0,12.889999999999999,-0.04597146026514312,12.889999999999999,46.40801346801346,0.0
8.6,0.2775,1.8949000000000003,9.3899,0.00349,-0.0015100000000000003,-0.00238,0.0,55.664,0.14,0.0,12.915,-0.046,12.915,46.49,0.0
8.616666666666667,-0.1473126520570903,1.3725233119173814,10.175610904738408,-0.0027332048530300766,-0.004726630749234472,-0.0022155257068211644,0.0,55.87889800024177,0.13902659401423384,0.0,12.940000000000003,-0.04600051890524211,12.940000000000003,46.58299663299665,0.0
8.633333333333333,0.4158956105973957,1.4952278495944733,9.815639651974825,0.002039438102491372,0.002185308132669695,0.0046074030145315395,0.0,56.09535354349834,0.13786443531321074,0.0,12.964999999999998,-0.04600142699591256,12.964999999999998,46.67801346801347,0.0
