timestamp_s,ax,ay,az,gx,gy,gz,pos_x,pos_y,pos_z,vel_x,vel_y,vel_z,speed_mps,speed_kmh,heading_deg
0.0,0.2229,1.7441,10.0722,-0.00641,-0.00113,0.00417,0.0,0.0,0.0,0.0,0.015,0.0,0.015,0.05,0.0
0.016666666666666666,-0.13254572476600812,1.6507787556944955,9.969703983043114,0.004389766574276133,-0.004388680712413662,0.00014627037772325246,0.0,0.0006002911311251727,2.3805769845715164e-14,0.0,0.04,0.000732412470016968,0.04,0.1424293509908076,0.0
0.03333333333333333,-0.03711394627621329,1.313870786296701,9.901057790270835,0.0012803548164312816,0.005029813559949971,-0.004818355496732498,0.0,0.0020245512712236038,1.904461587657214e-13,0.0,0.065,0.0009704108712468556,0.065,0.2379533264449793,0.0
0.05,-0.3198,1.4733999999999998,9.8287,-0.00476,-0.00771,0.00465,0.0,0.003,0.0,0.0,0.09,0.001,0.09,0.32,0.0
0.06666666666666667,-0.4186672707976207,1.3601473993023265,9.475951783772635,0.010210821061363853,0.004762873900424912,-0.0024762652465869757,0.0,0.004549002253901589,-1.4588175761454274e-11,0.0,0.11499999999999998,0.0016961568921205063,0.11499999999999998,0.4129974165368099,0.0
0.08333333333333333,0.00763384803579233,1.4064341124575306,9.619310547528638,-5.93781608565294e-06,0.0066040316712221245,0.0039023330544256407,0.0,0.007382389055462065,-1.3760211086220252e-10,0.0,0.13999999999999999,0.0019909222894028446,0.13999999999999999,0.5080135510820912,0.0
0.1,0.02500000000000001,1.7364000000000002,9.8553,0.00282,0.0010099999999999998,-0.0018500000000000005,0.0,0.01,0.0,0.0,0.165,0.002,0.165,0.59,0.0
0.11666666666666667,0.06602015261377318,1.3748226679395663,9.77494160260597,0.0007505998131135326,-0.010454615787809554,0.0008279162993959558,0.0,0.013329484451531402,1.0561815445523024e-08,0.0,0.19,0.0030648124495510818,0.19,0.6829966319143932,0.0
0.13333333333333333,0.010745005399641266,1.5915169796361908,9.883283576772868,0.003500105511058987,-0.0013205953766224307,-0.0006544796111341956,0.0,0.016681328129797283,9.962373781807597e-08,0.0,0.21499999999999997,0.0029351849344268865,0.21499999999999997,0.778013467898732,0.0
0.15,-0.18930000000000002,1.1798,9.7415,0.00443,-0.0029600000000000004,0.00016000000000000007,0.0,0.02,0.0,0.0,0.24000000000000002,0.004,0.24000000000000002,0.8599999999999999,0.0
0.16666666666666666,-0.07436396231490948,1.6946410124515818,9.62670570728395,0.012634543874068491,0.00898377128850601,0.0003807904098374816,0.0,0.025015365948475216,-7.64673979438293e-06,0.0,0.26499999999999996,0.004009259262526204,0.26499999999999996,0.9529966329981276,0.0
0.18333333333333332,-0.219528868487248,1.680783742051419,9.722050239286748,-0.0071963781165455855,-0.0024366827002824092,-0.001133539037712703,0.0,0.030002711637969706,-7.212744857817608e-05,0.0,0.2899999999999999,0.004305555555901906,0.2899999999999999,1.0480134680136264,0.0
0.2,0.0597,1.5855000000000001,9.9075,0.0028200000000000005,-0.0037399999999999994,-0.0013999999999999998,0.0,0.035,0.001,0.0,0.315,0.004999999999999999,0.315,1.13,0.0
0.21666666666666667,-0.15302254772984322,1.4056917245221594,9.853833731220535,-0.0003777720461119011,-0.0027172785720207798,0.0008439010523416245,0.0,0.03991593922277607,0.0009806734937622358,0.0,0.33999999999999997,0.004898148148143635,0.33999999999999997,1.222996632996631,0.0
0.23333333333333334,0.17853726084953667,1.3252908121733094,9.637606142584005,0.0050743175346117395,-0.0011444629522427347,0.00789081698920909,0.0,0.04635544598013251,0.0009979509246395917,0.0,0.3649999999999999,0.006101851851851372,0.3649999999999999,1.3180134680134674,0.0
0.25,0.07020000000000004,1.6546000000000003,9.572400000000002,-0.0020400000000000006,-0.0016600000000000013,6.999999999999997e-05,0.0,0.053,0.001,0.0,0.39000000000000007,0.006,0.39000000000000007,1.4,0.0
0.26666666666666666,0.11745888909159585,1.383794877949728,9.571458074233455,-0.001177582489046699,0.00040850744713351913,-0.008711078231091726,0.0,0.05969648861350735,0.001000037255935789,0.0,0.4149999999999999,0.006694444444444449,0.4149999999999999,1.4929966329966329,0.0
0.2833333333333333,0.19734090231137327,1.524379355583577,9.958428455817106,-0.004587665090505088,0.006794156420318483,0.006118335146623604,0.0,0.06665439874607912,0.0010001024539580707,0.0,0.44,0.006990740740740742,0.44,1.588013468013468,0.0
0.3,-0.0826,1.6539000000000001,9.7384,0.0025599999999999998,0.00124,0.007320000000000001,0.0,0.074,0.001,0.0,0.46499999999999997,0.007000000000000001,0.46499999999999997,1.67,0.0
0.31666666666666665,0.10683499356219928,1.3776462695041691,9.216290894129187,-0.0019639873655684227,-0.001542483522999329,0.0018926641839900602,0.0,0.08238186015345345,0.0009923532087265348,0.0,0.49,0.008064814814814815,0.49,1.762996632996633,0.0
0.3333333333333333,0.025990206457519056,1.4530187082796968,10.186069623607267,-0.0035614586755732965,0.009478547974986084,0.0005097220404946539,0.0,0.09097097296968053,0.0009278724097171099,0.0,0.5149999999999999,0.007935185185185186,0.5149999999999999,1.858013468013468,0.0
0.35,0.2355,1.4459999999999997,9.6467,0.00013000000000000002,0.004640000000000001,-0.00482,0.0,0.1,0.002,0.0,0.54,0.009,0.54,1.9399999999999997,0.0
0.36666666666666664,0.04430947557941776,1.481583778808622,10.224419761421373,-0.0071892685431472906,0.0015584520932861565,-0.0008537169036374873,0.0,0.1089478713973092,0.0019806840704974515,0.0,0.5650000000000001,0.009009259259259259,0.5650000000000001,2.0329966329966327,0.0
0.3833333333333333,0.3109755483710026,1.735698072138116,10.056475163634188,0.00040744990931594735,-0.0034599273472553796,-0.000610055427684297,0.0,0.11899080083481926,0.001998050688632356,0.0,0.59,0.009305555555555544,0.59,2.1280134680134677,0.0
0.4,-0.16160000000000002,1.4776000000000002,10.006400000000001,0.005849999999999999,0.0010900000000000003,0.0019100000000000002,0.0,0.129,0.002,0.0,0.615,0.01,0.615,2.21,0.0
0.4166666666666667,0.05900098323513747,1.663005280461181,10.186031466425614,-0.006323365173568237,-0.00495868386804001,0.0036428184939813896,0.0,0.13958147041689886,0.0019923797511187035,0.0,0.6400000000000001,0.009898148148148643,0.6400000000000001,2.302996632996633,0.0
0.43333333333333335,0.0984386988628015,1.355821508169013,9.972271164499825,0.0022051317382344787,-0.00045411152503874966,-0.002835147952569922,0.0,0.15102255595449926,0.001927873464901561,0.0,0.6650000000000001,0.01110185185185651,0.6650000000000001,2.398013468013468,0.0
0.45,-0.10430000000000003,1.6061000000000003,9.0263,0.002770000000000001,0.008560000000000002,-0.0005000000000000007,0.0,0.162,0.003000000000000001,0.0,0.6899999999999998,0.011,0.6899999999999998,2.48,0.0
0.4666666666666667,0.09615273625427502,1.623333908037583,10.462539287177771,-0.009371753200858287,-0.0021109612619706892,-0.0006287245907106715,0.0,0.17354902824941282,0.00298082056400573,0.0,0.7150000000000001,0.011694444444086755,0.7150000000000001,2.572996632996633,0.0
0.48333333333333334,-0.10297871022341065,1.4102966801631627,10.021660997752898,0.0028064308681670642,0.003257412216040312,0.0024275434587033937,0.0,0.18638239181142965,0.0029993385004151627,0.0,0.74,0.011990740737366865,0.74,2.6680134680134686,0.0
0.5,-0.199,1.6473000000000002,9.9054,0.0054600000000000004,-0.006360000000000001,-0.0006200000000000005,0.0,0.199,0.003,0.0,0.765,0.012,0.765,2.75,0.0
0.5166666666666666,0.20831796866918323,1.251430485514069,10.421894987237598,-0.002374724812426255,0.007821304201497995,0.00791600740276376,0.0,0.2123294844156259,0.002893531908732947,0.0,0.79,0.013064815073780527,0.79,2.8429966329966323,0.0
0.5333333333333333,-0.02721546007693893,1.5939339055530553,9.723422017957772,0.002943734523617379,0.0010035930377896149,-0.00026705688942628273,0.0,0.22568132812599065,0.0041066077900762145,0.0,0.815,0.012935187627864882,0.815,2.9380134680134677,0.0
0.55,0.4089,1.7140000000000002,10.306499999999998,0.00444,-0.00341,-0.0024999999999999996,0.0,0.239,0.004,0.0,0.84,0.014000000000000002,0.84,3.0200000000000005,0.0
0.5666666666666667,0.14895276206969937,1.203601987186215,9.379449212058828,-0.001866371491509992,0.001752645303324255,-0.004661375750992163,0.0,0.25401536594852475,0.003990966402228968,0.0,0.865,0.014009071768441739,0.865,3.1129966329966323,0.0
0.5833333333333334,0.1497569911134637,1.5562223660932468,9.554053556377802,-0.0026428185597818284,3.5672868734000244e-05,0.0033097926340609606,0.0,0.26900271163797507,0.003927732595516579,0.0,0.8900000000000001,0.014303787058828458,0.8900000000000001,3.2080134680134686,0.0
0.6,-0.048400000000000006,1.4982000000000002,9.4094,-0.004619999999999999,-0.004940000000000001,0.00312,0.0,0.284,0.005,0.0,0.915,0.014999999999999998,0.915,3.2900000000000005,0.0
0.6166666666666667,0.11474895953559715,1.6628863472226194,10.129868074761859,-0.0016949079269292888,-0.0009750223267828287,0.0004411474266780458,0.0,0.298915939222776,0.004980126210827168,0.0,0.94,0.015033891241065469,0.94,3.3829966329966332,0.0
0.6333333333333333,-0.057827587554764026,1.6138952651571625,9.733988349695483,0.0024639397954475104,-0.009821861112333751,0.003864597236736386,0.0,0.31535544598013254,0.004992770833697703,0.0,0.9650000000000001,0.015308166965524013,0.9650000000000001,3.478013468013468,0.0
0.65,-0.27479999999999993,1.0588,9.819100000000002,0.00172,0.004640000000000001,0.00309,0.0,0.332,0.005000000000000001,0.0,0.99,0.016,0.99,3.56,0.0
0.6666666666666666,0.256837571194641,1.406812253268418,9.736760956652821,-0.002106956078344076,0.006683148917070122,0.001396935132385701,0.0,0.34869648861350727,0.005693953255198144,0.0,1.0150000000000001,0.01589811414460179,1.0150000000000001,3.6529966329966332,0.0
0.6833333333333333,-0.19012063849942698,1.4183575119716347,9.524336819644608,-0.002905889640503162,-0.0036667460575880643,0.0001258820428750169,0.0,0.36565439874607897,0.005972850474013061,0.0,1.0399999999999998,0.017101848420301293,1.0399999999999998,3.748013468013467,0.0
0.7,-0.12459999999999999,1.7043,9.462700000000002,-0.00531,-0.005720000000000001,0.0027999999999999995,0.0,0.38300000000000006,0.006,0.0,1.065,0.017,1.065,3.83,0.0
0.7166666666666667,-0.05860976371528473,1.573042286442406,10.104836345633284,-0.005038520981517287,0.004180761923536035,0.0010515204298016207,0.0,0.4013818601534535,0.0058940133220070695,0.0,1.09,0.017694431030201883,1.09,3.9229966329966333,0.0
0.7333333333333333,-0.35364124997062873,1.206099400712679,9.920491264644552,0.0040823821510546894,-0.0038010302309335327,-0.00010023331528593661,0.0,0.41997097296968056,0.0071079304252904965,0.0,1.115,0.017990613773375054,1.115,4.018013468013469,0.0
0.75,-0.13190000000000002,1.9771000000000003,10.118000000000002,0.0012200000000000015,-0.0008400000000000001,0.00716,0.0,0.439,0.007000000000000001,0.0,1.14,0.018,1.14,4.1000000000000005,0.0
0.7666666666666666,-0.20069086355005508,1.1854871772430498,9.52178776781443,0.0017009615116465558,0.00023373696133936511,0.001690051468998915,0.0,0.45794787139730964,0.006892253463535916,0.0,1.1649999999999998,0.019074560729977943,1.1649999999999998,4.192996632996632,0.0
0.7833333333333333,0.09610413575224432,1.562398594270368,9.888713503624956,-0.0008336025378546741,-0.0017473667465709485,0.0026652604464179244,0.0,0.47799080083482387,0.00810774383788977,0.0,1.1900000000000002,0.019027112989492192,1.1900000000000002,4.288013468013467,0.0
0.8,-0.3607000000000001,1.8903999999999999,9.899000000000001,0.00387,-0.0024400000000000003,0.00736,0.0,0.49799999999999994,0.008,0.0,1.215,0.019000000000000003,1.215,4.37,0.0
0.8166666666666667,0.21976534432368366,1.7604821303302574,9.568919756721213,-0.003012057895186692,0.0010988632519263741,0.006966771570546309,0.0,0.5185814704165429,0.007892256855766824,0.0,1.2399999999999998,0.020064341206508834,1.2399999999999998,4.462996632996632,0.0
0.8333333333333334,-0.5086085902099913,1.4978072364304202,9.87326914792146,0.00174029970019641,-0.0005639637702471614,-0.0022994410023698454,0.0,0.5400225559511429,0.009107753164738204,0.0,1.265,0.01993513738983437,1.265,4.558013468013469,0.0
0.85,0.19120000000000004,1.2566,9.553,0.0019099999999999998,0.00495,0.00916,0.0,0.5609999999999999,0.009,0.0,1.29,0.021000000000000005,1.29,4.64,0.0
0.8666666666666667,0.25292601764634,1.7727504636498541,9.22279355121055,0.003847102751669187,0.0018800093847007413,0.009488072196207703,0.0,0.5825490285070437,0.008891560739061385,0.0,1.3150000000000002,0.021009072424288826,1.3150000000000002,4.732996632996634,0.0
0.8833333333333333,-0.13637741631052241,1.255962230107574,9.557641919758318,-0.0035918989227898264,-0.0018680487796585504,-0.009465530286219128,0.0,0.605382394241518,0.010101187113873682,0.0,1.3399999999999999,0.02130378714079184,1.3399999999999999,4.828013468013468,0.0
0.9,-0.03559999999999998,1.3899000000000001,9.6292,-0.0013500000000000003,0.0033700000000000015,-0.0002099999999999999,0.0,0.6279999999999999,0.01,0.0,1.3650000000000002,0.022,1.3650000000000002,4.91,0.0
0.9166666666666666,-0.05669841656968991,1.522848853841106,10.131604722394675,-0.0025870009799787877,-0.01753862073819316,1.4143560276699265e-05,0.0,0.6513292978912814,0.01069184213786439,0.0,1.3900000000000001,0.022033890275048835,1.3900000000000001,5.002996632996632,0.0
0.9333333333333333,0.23056911014023282,1.4422789064276722,9.500603169280149,0.011251187066319104,0.011848317280106251,0.005982997854662734,0.0,0.6746795687454665,0.01096610972404897,0.0,1.4149999999999996,0.022308157862057046,1.4149999999999996,5.098013468013468,0.0
0.95,0.1971000000000001,1.6298,10.0507,-0.004070000000000001,-0.0029300000000000003,-0.00303,0.0,0.698,0.010999999999999998,0.0,1.44,0.023000000000000003,1.44,5.179999999999999,0.0
0.9666666666666667,-0.42966501378127886,1.5831645405723505,9.50636521282381,0.0016667919381784513,0.0021780717338527947,-0.0030006024290941185,0.0,0.7231504093163061,0.011696212928597757,0.0,1.465,0.022898812884800876,1.465,5.272996632996634,0.0
0.9833333333333333,-0.0785398066998975,1.5046354421838088,10.701511669561679,-0.0009464259811594332,0.003773375019728387,-0.0056026942673943776,0.0,0.747202426633149,0.011990928230224891,0.0,1.4900000000000004,0.02410843924842483,1.4900000000000004,5.368013468013468,0.0
1.0,0.44820000000000004,1.4883000000000002,9.6976,0.006020000000000001,0.008210000000000002,-0.006159999999999999,0.0,0.7730000000000001,0.012000000000000004,0.0,1.5150000000000001,0.024,1.5150000000000001,5.45,0.0
1.0166666666666666,0.05363506088326483,1.5951830310355013,9.57447748946334,-0.0034425844834395534,0.004505796539875517,-0.004211318229475385,0.0,0.797922505251245,0.013064812372178162,0.0,1.54,0.023892247795782286,1.54,5.5429966329966325,0.0
1.0333333333333332,-0.11285276311681433,1.278409100642645,10.350636956954373,0.007902704774582636,0.0045133536217030965,0.0021128369240268163,0.0,0.8243561414473266,0.012935184926463525,0.0,1.565,0.0251077522042894,1.565,5.638013468013468,0.0
1.05,0.13020000000000004,1.5775,9.6962,-0.006210000000000002,0.00196,0.00599,0.0,0.851,0.014000000000000002,0.0,1.5900000000000003,0.025,1.5900000000000003,5.72,0.0
1.0666666666666667,0.20214019356063195,1.589183952685875,10.164491674974869,0.0011225222202771428,0.00950560376671276,-0.0007135179492956999,0.0,0.877696529522986,0.014009259244042015,0.0,1.6150000000000002,0.02489156074660013,1.6150000000000002,5.812996632996632,0.0
1.0833333333333333,-0.0095856226506182,1.3840090258732765,9.371072236214433,-0.002308867853744105,-0.005301026762501579,0.004478761271967999,0.0,0.9046548692058214,0.014305555380553768,0.0,1.64,0.02610118706827318,1.64,5.908013468013467,0.0
1.1,0.01919999999999998,1.3104,9.621,0.0003600000000000001,0.005860000000000001,-0.00112,0.0,0.9319999999999999,0.015,0.0,1.665,0.026,1.665,5.99,0.0
1.1166666666666667,0.3252759123323105,1.5129130021666288,9.780194273175194,-0.0003116511453009752,0.0016007800638237375,-0.004653908702663503,0.0,0.960345675662296,0.014898161608069305,0.0,1.6900000000000002,0.02669184573979908,1.6900000000000002,6.0829966329966325,0.0
1.1333333333333333,-0.2347194007997798,1.3139117226583923,9.630356616394238,-0.0005686749601234145,-0.003347755348317786,-0.0032878496806435864,0.0,0.9885926276118684,0.016101978811854406,0.0,1.7149999999999999,0.026966143699259225,1.7149999999999999,6.178013468013469,0.0
1.15,0.03249999999999999,1.5093,10.409300000000002,0.0106,-0.00236,0.00242,0.0,1.0180000000000002,0.016,0.0,1.74,0.027,1.74,6.26,0.0
1.1666666666666667,0.25046594451522464,1.7246395157149894,10.03672862025941,0.0029621662368614354,-0.010318518123239974,0.0009397149739934288,0.0,1.0469231798634686,0.016684699476740852,0.0,1.7650000000000003,0.02769360512033911,1.7650000000000003,6.352996632996634,0.0
1.1833333333333333,0.22763180168946576,1.5910889546357858,9.572867123984318,0.0012143537979158326,0.00501886190754659,-0.009492999893391843,0.0,1.0769864435053225,0.016898821873898295,0.0,1.7900000000000003,0.02796633022360542,1.7900000000000003,6.4480134680134675,0.0
1.2,0.0692,1.227,9.634,0.00535,0.00044999999999999993,-0.005910000000000001,0.0,1.107,0.018000000000000002,0.0,1.815,0.028,1.815,6.529999999999999,0.0
1.2166666666666666,0.09857655493439345,1.6784887312942187,9.700388362721192,0.00789070306510122,-0.0006781032825630129,-0.001076769505697689,0.0,1.1377165476310866,0.01800904686119747,0.0,1.8399999999999999,0.028693602690250834,1.8399999999999999,6.622996632996632,0.0
1.2333333333333334,0.19424682947897992,1.1113221580688117,10.226441915255762,0.0006143030467840426,-0.0018778953450244405,0.010565698422359975,0.0,1.1682222745346509,0.01829913263392737,0.0,1.865,0.028966329965974612,1.865,6.71801346801347,0.0
1.25,-0.073,1.1017,10.036,0.00631,7.999999999999994e-05,-0.00043000000000000015,0.0,1.2000000000000002,0.019,0.0,1.89,0.029000000000000005,1.89,6.8,0.0
1.2666666666666666,-0.13329542071832018,1.4418190272740716,9.687737510340733,0.0008543701853905962,-0.0005595201159338286,0.0032539997436939532,0.0,1.2315555944887626,0.019691298942215725,0.0,1.915,0.029693602693607313,1.915,6.892996632996633,0.0
1.2833333333333332,-0.061077085213128594,1.534727862805231,9.508104749357267,-0.001007907817737243,0.003150330853158758,-0.0018400653026260153,0.0,1.2643830897037511,0.019899521533058837,0.0,1.9399999999999997,0.029966329966330477,1.9399999999999997,6.988013468013467,0.0
1.3,-0.00949999999999998,1.5008,9.4378,0.0030100000000000005,-0.0010599999999999993,-0.00409,0.0,1.2969999999999997,0.021,0.0,1.9650000000000003,0.030000000000000002,1.9650000000000003,7.07,0.0
1.3166666666666667,0.10515248957126107,1.4548614482061002,9.69339118762952,-0.001659532102656154,-0.004379332781341407,8.280692308154755e-05,0.0,1.3303293388011805,0.021009037493128678,0.0,1.99,0.030693602693600844,1.99,7.1629966329966335,0.0
1.3333333333333333,0.3070517537205783,1.559357022801226,9.797730661195608,-0.007936080041990291,-0.005226457156659555,0.0017608399381896002,0.0,1.3636800392085724,0.021299129283329138,0.0,2.0149999999999992,0.030966329966312683,2.0149999999999992,7.258013468013467,0.0
1.35,-0.24520000000000008,1.5715,9.6726,-0.0008400000000000004,-0.0068600000000000015,-0.0013,0.0,1.397,0.022,0.0,2.04,0.031000000000000003,2.04,7.34,0.0
1.3666666666666667,-0.27061443627751736,1.2809332122497112,9.902224127364901,0.0011353906561882023,0.005467194547804475,-0.000754730573278637,0.0,1.4321142245675178,0.022691481958545118,0.0,2.065,0.03169360269492889,2.065,7.432996632996632,0.0
1.3833333333333333,0.11220739151019127,1.3656209624451687,10.033963211701597,-0.002511623262907548,0.0002579839016642079,0.0038852833868877,0.0,1.4658240788452486,0.022901247707003292,0.0,2.0900000000000003,0.03196632997883924,2.0900000000000003,7.5280134680134685,0.0
1.4,-0.3664,1.5278,9.7538,0.0003700000000000002,0.00013000000000000034,0.0115,0.0,1.502,0.024,0.0,2.115,0.032,2.115,7.61,0.0
1.4166666666666667,-0.28537099501582336,1.214111401522438,9.722333192774961,0.006024104429792061,-0.007991371680910388,0.0036843503529023196,0.0,1.5368980002417483,0.02387654303872192,0.0,2.1400000000000006,0.03269360173343816,2.1400000000000006,7.7029966329966335,0.0
1.4333333333333333,0.2227597558655842,1.6818587594901335,10.37895591870314,-0.0021757146499923304,0.0041690753147062,0.0018276916588436465,0.0,1.5733535434983497,0.02512345677221193,0.0,2.1650000000000005,0.032966320909631135,2.1650000000000005,7.798013468013468,0.0
1.45,-0.3183000000000001,1.5488,9.241800000000001,-0.0018200000000000002,0.00561,-0.00628,0.0,1.6099999999999999,0.025,0.0,2.1900000000000004,0.033,2.1900000000000004,7.880000000000001,0.0
1.4666666666666666,-0.2821407278166382,1.7017231966155824,9.598625785052276,0.0004289281003683065,-0.003450764235235995,-0.0012064064094647585,0.0,1.6466965633697488,0.026098765414187278,0.0,2.215,0.033694297851412154,2.215,7.972996632996631,0.0
1.4833333333333334,0.14504788032305183,1.7072482778087283,9.760636832410553,0.003083103931414346,0.00949000676951097,0.0030689185732622848,0.0,1.6836548727941558,0.02630864180415445,0.0,2.24,0.03397288700377398,2.24,8.068013468013469,0.0
1.5,-0.03740000000000002,1.7145,9.5083,0.0086,-0.0010300000000000003,0.0037200000000000006,0.0,1.721,0.027000000000000003,0.0,2.265,0.034,2.265,8.15,0.0
1.5166666666666666,0.020809786115307337,1.617305359907353,9.871809540487202,-0.003251012059440952,-0.0077875442304273165,0.0003279641736004045,0.0,1.7593456756155463,0.027691371163761632,0.0,2.2899999999999996,0.03389401310341292,2.2899999999999996,8.242996632996633,0.0
1.5333333333333332,0.04887118654037781,1.660869588473917,10.271803341979034,0.006877727565157107,0.004233801337096811,-0.005273997960020161,0.0,1.7975926276069112,0.027901358501455236,0.0,2.315,0.03510793280244786,2.315,8.338013468013468,0.0
1.55,0.2752,1.5656000000000003,10.1001,-0.00422,0.0035899999999999994,0.00574,0.0,1.837,0.028999999999999998,0.0,2.3400000000000003,0.03500000000000001,2.3400000000000003,8.42,0.0
1.5666666666666667,-0.00844071596059046,1.797918452679393,9.722103939247793,0.005554173305225735,-0.003200175898304531,0.0005173817598186315,0.0,1.8759231798635325,0.028867030540906037,0.0,2.365,0.03489206712948834,2.365,8.51299663299663,0.0
1.5833333333333333,0.04444269407508577,1.1551844818950268,9.989132463663752,0.0015410277838380712,0.0041222696167480125,0.0023752341108945092,0.0,1.9159864435053289,0.030033729068184255,0.0,2.3899999999999992,0.03610598624619956,2.3899999999999992,8.608013468013468,0.0
1.6,-0.4285,1.7812,9.623199999999999,0.0007300000000000001,0.0004499999999999999,0.0018300000000000005,0.0,1.9560000000000004,0.031000000000000003,0.0,2.415,0.036,2.415,8.69,0.0
1.6166666666666667,0.229253754535908,0.9942867520608428,9.67629029595877,-0.005694905368397462,-0.005946586878547954,0.0009035676436517639,0.0,1.9967165476310866,0.03087481351656795,0.0,2.44,0.03602716292481202,2.44,8.782996632996634,0.0
1.6333333333333333,0.12509237717341873,1.3712692232281658,9.765700372865439,0.007951860639847645,0.001925588729994046,-0.009148831660823436,0.0,2.037222274534651,0.03212324057759038,0.0,2.4650000000000003,0.03630617309721492,2.4650000000000003,8.878013468013469,0.0
1.65,0.13790000000000002,1.3836,9.3885,0.00239,0.00522,-0.00496,0.0,2.079,0.032,0.0,2.4899999999999998,0.037000000000000005,2.4899999999999998,8.96,0.0
1.6666666666666667,-0.0498701606279386,1.4456174997145799,10.15751808289912,-0.0013256495483979411,0.007130557448444474,-0.0013533187265812499,0.0,2.1205555944887626,0.033101316797226714,0.0,2.515,0.03699753086216833,2.515,9.052996632996633,0.0
1.6833333333333333,0.046131787927367496,1.496083086099858,9.52983461879554,-0.000299242144581273,-0.006696658280570819,-0.000180000563626267,0.0,2.163383089703752,0.033332685348968355,0.0,2.5400000000000005,0.036928395073903615,2.5400000000000005,9.148013468013469,0.0
1.7,0.6314000000000001,1.4657,9.459,-0.0021,0.00204,0.00223,0.0,2.206,0.034,0.0,2.5650000000000004,0.038,2.5650000000000004,9.23,0.0
1.7166666666666666,-0.12605375619781137,1.9221730842126343,9.084532499895726,-0.0003451919619027063,0.0009589201306947309,-0.00904192070988505,0.0,2.249329338801181,0.03510515862462029,0.0,2.5900000000000003,0.03798271508754017,2.5900000000000003,9.322996632996631,0.0
1.7333333333333334,-0.33068831807146687,1.2125356997323884,9.870420804348255,0.0033379705555747117,0.004693524921874768,-0.006246315829357703,0.0,2.2926800392085727,0.03530886306562433,0.0,2.6149999999999998,0.03801727487804764,2.6149999999999998,9.418013468013468,0.0
1.75,0.3661,1.6610000000000003,10.1038,-0.003930000000000001,0.0026100000000000003,0.0012999999999999997,0.0,2.336,0.036,0.0,2.64,0.038000000000000006,2.64,9.5,0.0
1.7666666666666666,-0.1861066484541792,1.5240806414490575,9.88908532593181,0.00033425959560256775,0.0013842308915070515,0.0011709497204167914,0.0,2.3811142245675176,0.03672680194064907,0.0,2.665,0.039072301314302234,2.665,9.59299663299663,0.0
1.7833333333333332,-0.22999320788681782,1.8742147520972774,10.71342895899446,0.0020911525011357806,0.008177577806229913,-0.005657338981312371,0.0,2.4248240788452478,0.037272677361251394,0.0,2.6900000000000004,0.039009037664049916,2.6900000000000004,9.688013468013466,0.0
1.8,0.22350000000000003,1.3664,9.5483,-0.0010299999999999997,-0.0009000000000000002,0.0027000000000000006,0.0,2.471,0.038,0.0,2.715,0.039,2.715,9.77,0.0
1.8166666666666667,-0.2922512814924958,1.571105469633854,9.85852115510277,0.00021050400486953384,-0.0026602337300078035,-0.0023512324274456904,0.0,2.515898000241748,0.03872727338248115,0.0,2.74,0.038893355579869074,2.74,9.862996632996635,0.0
1.8333333333333333,0.0713708281299685,1.6291060040640333,9.481538809597884,-0.003513122118466712,0.0030868100343674014,-0.0033747061448467734,0.0,2.562353543498349,0.03927272738835108,0.0,2.7649999999999992,0.040106123016479235,2.7649999999999992,9.958013468013466,0.0
1.8499999999999999,0.0028000000000055376,1.4891000000000039,10.005000000000006,8.218252467440124e-17,-0.003799999999999952,0.0021000000000000393,0.0,2.6089999999999995,0.04000000000000001,0.0,2.7899999999999996,0.04000000000000001,2.7899999999999996,10.04,0.0
1.8666666666666667,0.14370111569051253,1.6449889732688192,9.792913194483567,0.00026898902694627276,0.0048031377823287815,0.008272068490983685,0.0,2.655696563369749,0.04072726914298936,0.0,2.815,0.04002714774937748,2.815,10.132996632996633,0.0
1.8833333333333333,-0.14864561747387495,1.3704271944274307,10.41217659583206,-0.0001244424349531078,-0.002432116762302618,-0.0007580047423882463,0.0,2.7026548727941564,0.04127269347254997,0.0,2.8400000000000007,0.04030604655313211,2.8400000000000007,10.228013468013469,0.0
1.9,0.2059,1.7397000000000002,9.9599,-0.00261,-0.00142,-0.0034100000000000007,0.0,2.75,0.04200000000000001,0.0,2.8650000000000007,0.04100000000000001,2.8650000000000007,10.31,0.0
1.9166666666666667,0.18353981785763585,1.5801815874459781,10.249970483238357,-0.0041785595140194165,-0.0036315206760335087,0.006326978288618867,0.0,2.7983456756155465,0.042729867093220214,0.0,2.89,0.041007229426393337,2.89,10.402996632996631,0.0
1.9333333333333333,0.13883029702996602,1.424738563809563,9.516424326510217,0.0030179635429563472,-0.0016768667198473776,-0.0030246751809109426,0.0,2.8465926276069125,0.04329719848548103,0.0,2.9150000000000005,0.04101987621958574,2.9150000000000005,10.49801346801347,0.0
1.95,-0.0849,1.6787,9.9089,0.006360000000000001,-0.0022700000000000003,0.005850000000000001,0.0,2.896,0.044000000000000004,0.0,2.94,0.041,2.94,10.580000000000002,0.0
1.9666666666666666,0.20723001464512564,1.3927231973273309,9.655986570580094,-0.0028107897658801876,-0.001423279445032879,0.005047502400792648,0.0,2.9449231798635327,0.045108214624844184,0.0,2.965,0.04207208087517937,2.965,10.672996632996634,0.0
1.9833333333333334,0.00826241963030442,1.5949007555986823,9.661611010768635,0.003008837334475466,-3.4896586731670586e-05,8.020907122204495e-06,0.0,2.9949864435053297,0.04533338081696558,0.0,2.9900000000000007,0.04200727417049788,2.9900000000000007,10.768013468013468,0.0
2.0,0.13199999999999998,1.3829,9.7758,4.9999999999999914e-05,0.0011799999999999998,-0.0009599999999999995,0.0,3.045,0.046000000000000006,0.0,3.015,0.041999999999999996,3.015,10.85,0.0
2.0166666666666666,0.11013328277349367,1.401767992014087,9.60121537974089,0.008862572233581598,-0.005496012971989987,-0.005883160906891183,0.0,3.0957165476310875,0.04710792970477337,0.0,3.040000000000001,0.042028439165969454,3.040000000000001,10.942996632996634,0.0
2.033333333333333,-0.09958877603764153,1.6957440123716931,10.032377951078745,0.0019456581487119445,0.0020001436616936515,0.0008390199059420329,0.0,3.1462222745346513,0.04733509003144313,0.0,3.0650000000000004,0.04230621693254534,3.0650000000000004,11.03801346801347,0.0
2.05,0.19819999999999996,1.7703999999999995,9.8107,-0.0010399999999999993,0.00011000000000000002,0.00018000000000000004,0.0,3.1979999999999995,0.048,0.0,3.09,0.043,3.09,11.119999999999997,0.0
2.0666666666666664,-0.15743044635781278,1.931076510398489,9.547630348867532,0.00155738154176678,-0.0021388843898156908,0.0007276608550434821,0.0,3.2495555944887617,0.04897290134146205,0.0,3.115,0.0430046296296128,3.115,11.212996632996632,0.0
2.0833333333333335,-0.21341079060175222,1.2952194724813322,9.721800556371079,-0.001273855520449566,0.004674589224255232,-0.008107321698012294,0.0,3.3023830897037514,0.05013551049228759,0.0,3.1399999999999997,0.04299537037037317,3.1399999999999997,11.308013468013469,0.0
2.1,0.5555,1.6224,9.594000000000001,0.00624,0.0048,0.00878,0.0,3.355,0.05,0.0,3.165,0.043000000000000003,3.165,11.39,0.0
2.1166666666666667,0.25136543584693116,1.692386627619817,9.953086114251873,-0.011094215879971286,0.0018779408281992846,-0.0030747796261295346,0.0,3.408329338801181,0.05095594352114724,0.0,3.190000000000001,0.043693783068427236,3.190000000000001,11.482996632996633,0.0
2.1333333333333333,-0.08638401348041566,1.352861614847838,9.93310812515093,0.007135738656683702,0.005513183903394418,0.004045222788341917,0.0,3.461680039208573,0.052036795033828805,0.0,3.2150000000000003,0.04397156084320429,3.2150000000000003,11.57801346801347,0.0
2.15,0.06129999999999999,1.4270999999999998,9.7249,0.00698,-0.00891,0.0042,0.0,3.515,0.053,0.0,3.24,0.044,3.24,11.66,0.0
2.1666666666666665,-0.24186732904193314,1.3337902780413218,9.546171080926602,0.0012230637054947385,0.004821206254995544,0.0035164921663957587,0.0,3.5701142245675173,0.05366473008867061,0.0,3.2649999999999992,0.04399272512536116,3.2649999999999992,11.75299663299663,0.0
2.183333333333333,-0.31615233846788054,1.352441748053466,9.828587204727679,0.0041798088222684705,0.005035820273782989,-0.0012602733578181307,0.0,3.623824078845248,0.05389155168232471,0.0,3.29,0.04392791248305021,3.29,11.848013468013468,0.0
2.2,0.4539000000000001,1.9929,10.0057,-0.0006499999999999995,0.0018500000000000003,-0.0017200000000000002,0.0,3.6800000000000006,0.05500000000000001,0.0,3.3150000000000004,0.045,3.3150000000000004,11.93,0.0
2.216666666666667,-0.00886365392941671,1.5458113297300269,9.349373517109868,-0.005748721713067601,-0.004197936111748006,-0.003048511807304445,0.0,3.734898000241748,0.05570539820724406,0.0,3.3400000000000007,0.044980633577491554,3.3400000000000007,12.022996632996632,0.0
2.2333333333333334,-0.2566599727958138,1.4646313129598287,9.644785281652595,0.0016478592062912022,-0.0010078028630394872,0.0006945401240761859,0.0,3.7913535434983503,0.056294601777908126,0.0,3.3650000000000007,0.04499757920623527,3.3650000000000007,12.11801346801347,0.0
2.25,-0.0827,1.5213,9.7322,-0.0012699999999999999,-0.00495,-0.0019100000000000005,0.0,3.848,0.057,0.0,3.3899999999999997,0.045000000000000005,3.3899999999999997,12.200000000000001,0.0
2.2666666666666666,0.28522684801339654,1.614695886307429,9.777335864861072,-0.008179654555690332,0.0011026867986917712,0.0014475378034902679,0.0,3.904696563369749,0.05810844934811449,0.0,3.415,0.045028564770753385,3.415,12.292996632996635,0.0
2.283333333333333,-0.3070532832918759,1.5349506319924973,9.259320730646198,-0.005177281584483012,0.0005893784927539707,0.0013110013044616258,0.0,3.9616548727941563,0.05833527963071668,0.0,3.4400000000000004,0.04530622368410368,3.4400000000000004,12.388013468013469,0.0
2.3,0.5239999999999999,1.3000999999999998,9.768700000000003,0.0035699999999999994,0.006499999999999999,0.00018999999999999985,0.0,4.019,0.059,0.0,3.4649999999999994,0.04599999999999999,3.4649999999999994,12.47,0.0
2.3166666666666664,0.01897754408507544,1.4540966133217077,9.230201064216773,-0.001698417004188515,0.0010086197848540386,0.0011004013396187437,0.0,4.077345675615546,0.059962458943062624,0.0,3.4899999999999993,0.046005139063721306,3.4899999999999993,12.562996632996631,0.0
2.3333333333333335,-0.4915925535201731,1.4784259392875072,9.741816841607344,-0.005475251299847241,0.0014348111461878876,-0.0003631882579969772,0.0,4.135592627606911,0.06103701965729913,0.0,3.515,0.04600017720640552,3.515,12.658013468013467,0.0
2.35,-0.21020000000000003,1.434,9.4845,9.000000000000024e-05,0.0034199999999999994,-0.0015,0.0,4.195,0.06200000000000001,0.0,3.5400000000000005,0.046000000000000006,3.5400000000000005,12.740000000000002,0.0
2.3666666666666667,0.5895534566062433,1.4458745872988497,10.184397345901278,-0.0031882862635643065,-0.0005271147366944203,0.0001363367568939996,0.0,4.253923179863533,0.06270090550417656,0.0,3.5649999999999995,0.04602853087279733,3.5649999999999995,12.832996632996634,0.0
2.3833333333333333,-0.2162787088348388,1.501265620149558,9.826222982676253,0.011281815266568327,-0.0005859816661544689,0.0012839641519008236,0.0,4.313986443505327,0.06326989589210841,0.0,3.5900000000000003,0.04630621961903195,3.5900000000000003,12.928013468013472,0.0
2.4,-0.4137,1.3771999999999998,9.2887,0.0024300000000000003,-0.0070799999999999995,0.005349999999999999,0.0,4.373999999999999,0.064,0.0,3.615,0.047,3.615,13.009999999999998,0.0
2.4166666666666665,-0.10600975662989984,1.4797836637931248,9.671431614371514,0.001993227380259295,0.0006757829152279845,-0.003934509627181261,0.0,4.434716547631347,0.06473010418126655,0.0,3.6399999999999997,0.047005175697679424,3.6399999999999997,13.10299663299663,0.0
2.433333333333333,0.060437009199925056,1.4984280353961377,9.85151777485982,0.0009298871933297011,-0.0011911218873857838,0.006232771911413619,0.0,4.495222274537107,0.06529909519696216,0.0,3.665,0.04700052231816489,3.665,13.198013468013468,0.0
2.45,0.0718,1.6946000000000003,9.3652,0.00174,0.005250000000000001,-0.00232,0.0,4.557,0.06599999999999999,0.0,3.6900000000000004,0.04700000000000001,3.6900000000000004,13.280000000000001,0.0
2.466666666666667,-0.18709336026530857,1.578634307967163,9.600695330592927,-0.0036020407476828934,0.0012028767042560494,-0.0071113666776280605,0.0,4.618555594300165,0.06696292651807316,0.0,3.715,0.047002041785076415,3.715,13.372996632996635,0.0
2.4833333333333334,0.040213677725222496,1.353973790073618,9.658641352135941,-0.0012279210148626828,0.004402302207296928,0.00305435716977561,0.0,4.681383087924805,0.0680370333591124,0.0,3.74,0.04701932573329296,3.74,13.46801346801347,0.0
2.5,0.0325,1.4911,10.000499999999999,-0.00302,0.0017599999999999994,0.00010999999999999985,0.0,4.744,0.06900000000000002,0.0,3.7649999999999997,0.047,3.7649999999999997,13.55,0.0
2.5166666666666666,-0.07371963351062312,1.5093662568697566,9.971626814127267,0.006346496164372922,-0.006910368648465225,0.004765095340952202,0.0,4.807329475346479,0.06970368932636133,0.0,3.790000000000001,0.048072127462556534,3.790000000000001,13.642996632996631,0.0
2.533333333333333,-0.12196931188984281,1.666981284635825,10.068380315757524,-0.0008417390993852177,0.005947286767379552,-0.002693288754842365,0.0,4.870681327164506,0.07029616021307891,0.0,3.815,0.048007646777732296,3.815,13.73801346801347,0.0
2.55,0.003799999999999998,1.6768,9.439299999999998,-0.0013899999999999993,0.00172,-0.005809999999999999,0.0,4.934,0.071,0.0,3.84,0.048,3.84,13.819999999999997,0.0
2.5666666666666664,-0.21539197804411528,1.6096846072166995,9.580561611637794,-0.010847848924908662,-0.0019804196599550314,-0.0013113638754249307,0.0,4.999015365961049,0.07197340860373617,0.0,3.8649999999999998,0.04799989754621834,3.8649999999999998,13.91299663299663,0.0
2.5833333333333335,-0.2541540917018819,1.6990279854413097,9.64331374312335,0.0015118437845548266,-0.0024708847530180208,-0.005862928293546401,0.0,5.064002711639303,0.0731355649643572,0.0,3.89,0.047999962744082914,3.89,14.008013468013466,0.0
2.6,-0.04740000000000001,1.5857,9.5658,-0.00958,-0.00639,-0.005600000000000001,0.0,5.1290000000000004,0.07300000000000001,0.0,3.9150000000000005,0.048,3.9150000000000005,14.09,0.0
2.6166666666666667,-0.4298141884797126,1.4205447848976378,10.066421915671567,-0.002328318974860205,0.0039927209744372765,0.0025464245407082423,0.0,5.193915939222759,0.07395588897605329,0.0,3.94,0.048002049075360174,3.94,14.182996632996632,0.0
2.6333333333333333,0.08693540774933478,1.462494292894541,10.02190299627081,0.0031023946372989264,0.001874755899194805,-0.0014529230138360162,0.0,5.260355445980131,0.07503628707376683,0.0,3.9650000000000003,0.04801932650623782,3.9650000000000003,14.27801346801347,0.0
2.65,-0.06289999999999998,1.4836999999999998,8.928,0.005510000000000001,-0.0012699999999999999,5.9999999999999724e-05,0.0,5.327,0.07599999999999998,0.0,3.99,0.048,3.99,14.359999999999998,0.0
2.6666666666666665,-0.4196170441284839,1.7638207565220598,9.959912182891088,0.012284860797752232,-0.003155491758525651,-0.005140003597311464,0.0,5.393696488613506,0.07670371347442247,0.0,4.014999999999999,0.049072127448572776,4.014999999999999,14.45299663299663,0.0
2.683333333333333,0.2717373997043185,1.3409446996512335,9.979528067924763,-0.0030348204482294177,0.004413539661912494,-0.00033821709661091147,0.0,5.460654398746078,0.07729629733215912,0.0,4.04,0.049007646739743456,4.04,14.548013468013469,0.0
2.7,0.060300000000000006,0.9850999999999999,9.443900000000001,-0.0041400000000000005,-0.008310000000000001,-0.0009799999999999998,0.0,5.528,0.078,0.0,4.065,0.049,4.065,14.63,0.0
2.716666666666667,0.10242080417689747,1.5249793449732376,10.11258359710815,-0.0038097874867642307,0.004377756642780328,0.004337291023884891,0.0,5.596381860153454,0.07896296294946747,0.0,4.09,0.04899990038017108,4.09,14.722996632996633,0.0
2.7333333333333334,-0.35057205294065563,1.2648987151571331,10.069316566929702,0.0030698321032522967,-0.0029252489019773262,0.0010398787377664221,0.0,5.664970972969681,0.08003703703560629,0.0,4.115000000000001,0.048999989475054934,4.115000000000001,14.81801346801347,0.0
2.75,-0.1343,1.3155,9.3158,-0.005819999999999999,-0.00015999999999999999,0.0019699999999999995,0.0,5.733999999999999,0.08099999999999999,0.0,4.14,0.04900000000000001,4.14,14.899999999999999,0.0
2.7666666666666666,-0.004174809573729041,1.794448297671602,9.482989436737814,-0.0029627944545591632,0.00041597868191541114,0.00542056156393672,0.0,5.80294787139731,0.08170370370372236,0.0,4.165,0.04899999730757219,4.165,14.992996632996633,0.0
2.783333333333333,-0.09506736696863677,1.562541082139185,9.88759228978881,0.004488229545469205,0.00017925796222534695,0.00039045539815064624,0.0,5.8729908008348195,0.08229629629629827,0.0,4.1899999999999995,0.048999973320488006,4.1899999999999995,15.08801346801347,0.0
2.8,0.020700000000000014,1.5080999999999998,9.3145,-0.0012499999999999996,-9.999999999999593e-06,-0.00458,0.0,5.943,0.08300000000000002,0.0,4.215,0.049,4.215,15.170000000000002,0.0
2.8166666666666664,0.364907993869649,1.4116420296781398,9.865912352863853,-0.0025548051901826646,-0.002136322349538611,0.0012376181674473088,0.0,6.013581470416898,0.08396296296296292,0.0,4.24,0.04900204893756797,4.24,15.262996632996632,0.0
2.8333333333333335,-0.00637648398933192,1.600187445702091,9.546880440790929,0.000181236236350988,0.0027239657323151457,-0.001731809221062583,0.0,6.0850225559545,0.08503703703703705,0.0,4.265000000000001,0.04901932649162941,4.265000000000001,15.35801346801347,0.0
2.85,0.33560000000000006,1.1582,9.9688,-0.00313,0.00279,-0.00208,0.0,6.156000000000001,0.086,0.0,4.29,0.04900000000000001,4.29,15.44,0.0
2.8666666666666667,0.2830094701635443,1.5242036968438415,9.927789312049942,0.0065087891837904924,0.004534365347173059,-0.0038727814624335832,0.0,6.227549028249413,0.08670370370370371,0.0,4.315000000000001,0.0500721274487685,4.315000000000001,15.532996632996635,0.0
2.8833333333333333,-0.05572859511865605,1.7952963776949427,9.823998207204102,-0.006957709107892134,-0.000788225936174737,0.004001642873383903,0.0,6.300382391811429,0.08729629629629629,0.0,4.34,0.05000764673981457,4.34,15.628013468013469,0.0
2.9,0.3617999999999999,1.5386,9.322,0.00237,-0.0023199999999999996,-0.006559999999999999,0.0,6.373,0.088,0.0,4.365,0.049999999999999996,4.365,15.71,0.0
2.9166666666666665,0.020435607725895463,1.5050444183434417,10.279540537793313,-0.007343378688881602,0.0003639591444003794,0.002981345819630751,0.0,6.446329484415625,0.08896296296296295,0.0,4.389999999999999,0.04999990037626192,4.389999999999999,15.802996632996631,0.0
2.933333333333333,-0.02722435380950817,1.5164276957533658,10.122991617513737,0.008634231951562052,-0.00991542497885997,-0.00489948296069223,0.0,6.51968132812599,0.09003703703703705,0.0,4.414999999999999,0.04999998943818453,4.414999999999999,15.898013468013469,0.0
2.95,-0.19300000000000003,1.6213000000000002,9.870800000000001,-0.006839999999999999,0.00554,0.0032399999999999994,0.0,6.593,0.091,0.0,4.440000000000001,0.05,4.440000000000001,15.980000000000002,0.0
2.966666666666667,0.17566609183914342,1.4852781632455305,9.726787251522541,0.00036886304822554604,0.001638473366191395,0.0019087784200089272,0.0,6.668015365948525,0.09170370370370372,0.0,4.465,0.05000000013760211,4.465,16.072996632996635,0.0
2.9833333333333334,0.1289126050511382,1.6930963413086317,9.597937379500058,-0.0014580756752828512,-0.011512978258049556,-0.0020815348873999286,0.0,6.743002711637976,0.0922962962962963,0.0,4.490000000000001,0.05000000001458818,4.490000000000001,16.16801346801347,0.0
3.0,-0.1044,1.3099,10.083600000000002,-0.004440000000000001,0.00793,-0.008190000000000001,0.0,6.818,0.093,0.0,4.515,0.05,4.515,16.25,0.0
3.0166666666666666,-0.248952765931495,1.401272799298988,10.016000470999314,0.0023276428847364907,0.0026994718812177487,0.0023349299457797274,0.0,6.892915939222778,0.09396296296296297,0.0,4.54,0.049999999999809946,4.54,16.342996632996634,0.0
3.033333333333333,0.46793163011896444,1.5810582338363035,9.816012291109324,0.0015788532495164276,-0.005974242119290736,-0.003269999302487558,0.0,6.969355445980133,0.09503703703703704,0.0,4.565,0.04999999999997986,4.565,16.438013468013473,0.0
3.05,-0.2794,2.0501999999999994,10.3066,-0.002489999999999999,0.0018699999999999995,0.00317,0.0,7.045999999999999,0.09599999999999999,0.0,4.59,0.05,4.59,16.519999999999996,0.0
3.0666666666666664,-0.05344874262422882,1.5919669961391987,9.77263100423432,-0.004744904190016224,0.0032309216691990715,-9.805916448193331e-05,0.0,7.122696488613506,0.09670370370370368,0.0,4.614999999999999,0.050000000000000266,4.614999999999999,16.612996632996627,0.0
3.0833333333333335,0.12070941104568876,1.2604386575040123,10.136097190679385,0.007690174877234472,0.0018968652170838916,0.007165474332807289,0.0,7.1996543987460795,0.09729629629629633,0.0,4.640000000000001,0.05000000000000003,4.640000000000001,16.70801346801347,0.0
3.1,0.24850000000000003,1.5764,9.644199999999998,-0.00252,-0.00068,-0.003310000000000001,0.0,7.277,0.098,0.0,4.665000000000001,0.05,4.665000000000001,16.79,0.0
3.1166666666666667,0.2236387221727439,1.4319553292508143,9.463767278176034,1.2249946437677603e-05,-0.002435278899862597,0.005106201435533431,0.0,7.355381860153454,0.09896296296296297,0.0,4.69,0.05000000000000002,4.69,16.882996632996633,0.0
3.1333333333333333,-0.015123004975768224,1.2935241036331984,9.847110545898635,-9.213103398820569e-05,-0.004505804679124933,7.028605372871229e-05,0.0,7.433970972969681,0.10003703703703705,0.0,4.715,0.05,4.715,16.978013468013465,0.0
3.15,-0.10989999999999996,1.5612999999999997,9.8267,-0.0036699999999999997,0.0032399999999999994,-0.007079999999999999,0.0,7.513,0.101,0.0,4.74,0.049999999999999996,4.74,17.06,0.0
3.1666666666666665,0.17364351918788165,1.287204255901006,10.193026262982992,0.0005252022284021426,0.0032976684979802253,0.000717479097591778,0.0,7.591947871397307,0.10170370370370367,0.0,4.764999999999999,0.05,4.764999999999999,17.152996632996633,0.0
3.183333333333333,-0.12155380859037224,1.8030658676150324,8.97064535648723,0.0025175085450399133,-0.00045798123436633926,0.0035700153602106683,0.0,7.6719908008348225,0.10229629629629626,0.0,4.790000000000001,0.05000000000000001,4.790000000000001,17.248013468013472,0.0
3.2,-0.21609999999999996,1.4834,9.4972,0.00564,0.01292,-0.0023499999999999997,0.0,7.752,0.103,0.0,4.815,0.05000000000000001,4.815,17.33,0.0
3.216666666666667,-0.15626513271383977,1.5851448799102368,9.680851655458444,0.007493188542291136,0.003180693769514024,0.004741524500704618,0.0,7.832581470416543,0.10396296296296297,0.0,4.84,0.0500000000000004,4.84,17.422996632996636,0.0
3.2333333333333334,-0.05757513115643291,1.4890729282704682,9.276732838818905,0.0047833518324327945,0.0014038479901370803,0.0047785931536248934,0.0,7.914022555951144,0.10503703703703704,0.0,4.865000000000001,0.050000000000003667,4.865000000000001,17.51801346801347,0.0
3.25,0.11070000000000003,1.5323,9.4536,0.00011999999999999988,-0.0012799999999999999,0.0005299999999999997,0.0,7.995,0.106,0.0,4.889999999999999,0.05,4.889999999999999,17.599999999999998,0.0
3.2666666666666666,-0.4482615084423219,1.7055767631626173,10.044408518443053,0.002624441300972109,-0.0006151428113507079,-0.0021549213114150545,0.0,8.076549028507046,0.10670370370370372,0.0,4.915000000000001,0.04999999999971936,4.915000000000001,17.692996632996632,0.0
3.283333333333333,0.13069691399655065,1.1669636941951889,9.573171931217521,-0.0007816426337886342,-0.005163519180452454,-0.004696643769794749,0.0,8.15938239424152,0.1072962962962963,0.0,4.9399999999999995,0.049999999997352836,4.9399999999999995,17.78801346801347,0.0
3.3,-0.17869999999999997,1.2583,10.1033,-0.0006400000000000002,0.0008499999999999996,-0.0069,0.0,8.241999999999999,0.10800000000000001,0.0,4.965,0.05,4.965,17.87,0.0
3.3166666666666664,0.0017972449522099705,1.43809340517183,10.290377288070584,0.0007690873317025205,-0.0002113724256682548,0.0011900234823378182,0.0,8.32532929789128,0.10896296296296296,0.0,4.989999999999999,0.050000000203187005,4.989999999999999,17.96299663299663,0.0
3.3333333333333335,0.30849087913780643,1.177382844780723,9.945070441174208,0.004745544660164497,-0.004186331712978602,0.0047370517333313105,0.0,8.408679568745468,0.11003703703703702,0.0,5.015,0.050000001916550164,5.015,18.058013468013463,0.0
3.35,0.14680000000000007,1.7147,9.9909,0.0019500000000000006,0.00287,-0.011630000000000001,0.0,8.492,0.111,0.0,5.040000000000001,0.05000000000000001,5.040000000000001,18.14,0.0
3.3666666666666667,0.15571542230460955,1.561586781320474,9.522538622156102,-0.003914780564767767,0.008909890106259944,-0.0032257836050523935,0.0,8.577150409316305,0.11170370370370358,0.0,5.065,0.04999985289288761,5.065,18.232996632996635,0.0
3.3833333333333333,-0.05864896532548879,1.595723351235406,10.086276806797768,0.011944716081927204,4.916085858417763e-05,-0.0017906630137655033,0.0,8.66120242663315,0.11229629629629496,0.0,5.090000000000001,0.049998612420329464,5.090000000000001,18.32801346801347,0.0
3.4,0.2913,1.7063999999999997,9.7969,0.0005299999999999998,0.00418,0.0036299999999999995,0.0,8.747,0.11299999999999999,0.0,5.114999999999999,0.05,5.114999999999999,18.41,0.0
3.4166666666666665,0.13146663614069207,1.7455732151003551,9.742823233871658,-0.0004920325139926281,0.00029426882687562904,-5.010083181285728e-05,0.0,8.831922505251244,0.1139629629630657,0.0,5.139999999999999,0.050106505346185735,5.139999999999999,18.50299663299663,0.0
3.433333333333333,0.023867423921269296,1.2866256755999421,9.476954770578137,-0.006501839827232684,-0.000722055827915049,-0.009287400137470217,0.0,8.918356141447326,0.11503703703800598,0.0,5.165,0.04889349465381319,5.165,18.59801346801347,0.0
3.4499999999999997,-0.2368999999999889,1.3324999999999965,9.876400000000016,-0.008950000000000034,-0.005659999999999871,0.0024400000000000983,0.0,9.005,0.11599999999999999,0.0,5.19,0.049000000000000016,5.19,18.68,0.0
3.466666666666667,-0.1950155437159989,1.5938017823114163,9.428684499201145,0.004134839213912222,0.00944651627279103,-0.005605658606894127,0.0,9.091696529522986,0.11670370362933212,0.0,5.215,0.04900138757974575,5.215,18.77299663299663,0.0
3.4833333333333334,0.08775626853700119,1.6481097366287367,9.576824850192011,0.0024465780937047393,-0.006572593300117455,0.0031016958753795785,0.0,9.178654869205824,0.11729629559479027,0.0,5.240000000000001,0.04900014710782171,5.240000000000001,18.86801346801347,0.0
3.5,0.0005999999999999929,1.5071,9.9265,0.00105,-0.00642,-0.004509999999999999,0.0,9.266,0.11799999999999997,0.0,5.265,0.049,5.265,18.949999999999996,0.0
3.5166666666666666,-0.29955743020245695,1.5661104655091842,9.983817863018293,0.005390663863804232,-0.006395013290440354,-0.00036084555468174156,0.0,9.354345675662296,0.11896301680790317,0.0,5.290000000000001,0.048999998029006044,5.290000000000001,19.042996632996633,0.0
3.533333333333333,-0.01877991878270284,1.178365745936505,9.357016653368087,0.000940411096111426,0.0006425680758716344,-0.0022381914150805876,0.0,9.44259262761187,0.12003754492644625,0.0,5.3149999999999995,0.04899999928327493,5.3149999999999995,19.138013468013472,0.0
3.55,-0.0967,1.702,10.010899999999998,-0.007340000000000001,-0.006189999999999999,0.0015,0.0,9.531999999999998,0.12099999999999998,0.0,5.339999999999999,0.049,5.339999999999999,19.22,0.0
3.5666666666666664,0.15625797325517732,1.627087855706968,10.017404897778137,-0.0002143654970339485,0.0064431060060045715,-0.009590678322020879,0.0,9.620923179863466,0.1216647200413608,0.0,5.364999999999999,0.04900003941987953,5.364999999999999,19.31299663299663,0.0
3.5833333333333335,0.07984567088177592,1.6252605757095484,10.062232926123915,0.006381343877174892,0.00017145451725728247,0.0029737034577702673,0.0,9.710986443505323,0.1218915480285083,0.0,5.390000000000001,0.04900037180113646,5.390000000000001,19.408013468013465,0.0
3.6,0.1759,1.3837,9.554,-0.01103,0.0068200000000000005,0.0023,0.0,9.801,0.123,0.0,5.415000000000001,0.048999999999999995,5.415000000000001,19.490000000000002,0.0
3.6166666666666667,0.231988497160052,0.8757782989419244,10.072221330792138,0.0017592152480194162,-0.0016422535754261486,-0.002004715968885575,0.0,9.891716547631088,0.12370559917278331,0.0,5.440000000000001,0.048971461978215614,5.440000000000001,19.582996632996636,0.0
3.6333333333333333,-0.055615429250589654,1.5537366996047486,9.043352240324976,-0.003917452244935347,-0.005407860792294118,0.0014020731746551796,0.0,9.982222274534651,0.12429649724834757,0.0,5.464999999999999,0.04869377965689204,5.464999999999999,19.67801346801347,0.0
3.65,-0.1063,1.3993,9.581600000000002,-0.0009499999999999999,0.00489,0.0025699999999999994,0.0,10.074,0.125,0.0,5.489999999999999,0.047999999999999994,5.489999999999999,19.759999999999998,0.0
3.6666666666666665,0.21448119397931767,1.6551200066327123,9.646329386496433,0.00033474815323472504,0.0035488529728962123,-0.004041626871516383,0.0,10.16555559448876,0.12596296034500948,0.0,5.514999999999999,0.04799482168535701,5.514999999999999,19.852996632996632,0.0
3.683333333333333,-0.043211930492822584,1.6127948363806315,9.990708041550862,0.001351488863385993,-0.006380981637091775,0.005903095869660041,0.0,10.25838308970375,0.12703703676044736,0.0,5.540000000000001,0.047999452905332834,5.540000000000001,19.94801346801347,0.0
3.6999999999999997,-0.14680000000000792,1.3496999999999912,9.747399999999994,0.004169999999999737,-0.006280000000000201,0.00396999999999967,0.0,10.351,0.128,0.0,5.565,0.048000000000000015,5.565,20.03,0.0
3.716666666666667,0.1566381729177447,1.5594813434174306,9.657958401340858,-0.007563174486306444,-0.006222113616276729,-0.004417799423591435,0.0,10.44432933880118,0.12870370363294822,0.0,5.59,0.04799986004553005,5.59,20.122996632996635,0.0
3.7333333333333334,-0.042917264305943996,1.4064906497092184,9.791551602781583,-0.0030945589204023293,0.00504004752784324,0.0013609616360066978,0.0,10.537680039208574,0.12929629559517367,0.0,5.615000000000001,0.04799861317844364,5.615000000000001,20.218013468013467,0.0
3.75,0.074,1.5754000000000001,10.822299999999998,0.004470000000000001,-0.0017299999999999998,0.00942,0.0,10.631,0.13,0.0,5.64,0.047999999999999994,5.64,20.3,0.0
3.7666666666666666,-0.7058554234624534,1.4187503221114475,8.950665820499482,-0.00048049414150755517,-0.005904150344139312,0.007773965107237485,0.0,10.726114224567517,0.13096301680789624,0.0,5.665,0.04810650535089467,5.665,20.392996632996635,0.0
3.783333333333333,0.13118165836539739,1.4586562556261444,9.72378710013516,-0.005256756418034076,0.005957312219406209,-0.007150061079236773,0.0,10.819824078845249,0.13203754492642708,0.0,5.69,0.04689349479036914,5.69,20.488013468013467,0.0
3.8,-0.03950000000000001,1.6128,10.0053,-0.00317,-0.0019299999999999999,0.0013999999999999993,0.0,10.916,0.133,0.0,5.714999999999999,0.04699999999999999,5.714999999999999,20.57,0.0
3.8166666666666664,-0.033296771291859616,1.0810669293759956,9.479094964432848,0.0104527847896248,-0.00329192611581019,0.0033681728948148056,0.0,11.010898000241747,0.13366472004279156,0.0,5.739999999999999,0.04700137701784855,5.739999999999999,20.66299663299663,0.0
3.8333333333333335,0.17787068183589008,1.4838247214068803,9.718765677142128,0.005287316688149309,-0.004858538822322043,-0.004405258787182461,0.0,11.10735354349835,0.13389154804200382,0.0,5.765,0.047000047483185696,5.765,20.758013468013466,0.0
3.85,-0.187,1.7367,10.078100000000001,0.006410000000000001,-0.0021799999999999996,-0.0006999999999999999,0.0,11.204,0.135,0.0,5.790000000000001,0.047,5.790000000000001,20.84,0.0
3.8666666666666667,-0.04579327234345684,1.4210372541158531,9.852176226413725,0.013758380527162311,-0.005446526994497906,0.0010458960835927989,0.0,11.300696563369751,0.13570559813692115,0.0,5.815000000000001,0.047007644837852434,5.815000000000001,20.932996632996637,0.0
3.8833333333333333,0.4090520998574377,1.5219084087467196,9.27778857489502,-0.0073445998762356355,-0.0031077974506770988,0.0003818674437239064,0.0,11.397654872794158,0.13629648747763512,0.0,5.839999999999999,0.04707212738318236,5.839999999999999,21.02801346801347,0.0
3.9,-0.17439999999999997,1.5258,10.0953,0.0062099999999999985,0.00010999999999999996,0.0024700000000000004,0.0,11.494999999999997,0.13699999999999998,0.0,5.865,0.046,5.865,21.11,0.0
3.9166666666666665,0.08447409610138572,1.5185055351897119,9.71968377869734,-0.004226953121723352,0.002187470132281023,0.00018565517658631725,0.0,11.593345675615545,0.1379637103077936,0.0,5.889999999999998,0.04601931593255646,5.889999999999998,21.20299663299663,0.0
3.933333333333333,0.04516828064130038,1.56197993856066,9.64766165441538,0.009682993706332414,0.009705374594021796,-0.0004897334319050635,0.0,11.69159262760691,0.13904411074277215,0.0,5.915,0.0460019493150099,5.915,21.29801346801347,0.0
3.9499999999999997,0.007800000000004345,1.7191000000000074,9.800899999999999,0.0001600000000002527,-0.0005099999999998715,-0.003320000000000093,0.0,11.790999999999999,0.14,0.0,5.94,0.046000000000000006,5.94,21.38,0.0
3.966666666666667,-0.04054860135479059,1.5640404537184391,9.718764293007109,0.00854753145251688,-0.0038399969250874676,0.001202719030927568,0.0,11.889923179863532,0.13986443531680817,0.0,5.965,0.04600761999126731,5.965,21.472996632996633,0.0
3.9833333333333334,-0.3398798767464211,1.531108665929893,10.085321776508632,-0.007193954619642419,-0.0007860012134951811,-0.0014033812632891325,0.0,11.989986443505332,0.1410265940146152,0.0,5.990000000000001,0.04607212410520351,5.990000000000001,21.568013468013476,0.0
4.0,0.08570000000000003,1.4566,9.742,0.0004599999999999999,-2.9999999999999862e-05,0.0015800000000000002,0.0,12.09,0.142,0.0,6.015000000000001,0.045000000000000005,6.015000000000001,21.65,0.0
4.016666666666667,0.044313284767829544,1.336768935622777,9.352264380451734,0.005647144462551957,0.002165859186574971,0.0005876182837242205,0.0,12.190716547631089,0.14270363884163378,0.0,6.040000000000001,0.045019365945471256,6.040000000000001,21.742996632996636,0.0
4.033333333333333,-0.1485893680866849,1.4968051874557098,9.672027708893829,0.0035420027665648865,-0.001320496023506099,-0.007583343057884037,0.0,12.291222274534649,0.1432944152684184,0.0,6.0649999999999995,0.04500242073987184,6.0649999999999995,21.838013468013468,0.0
4.05,0.2843,1.3645999999999998,9.8703,-0.00322,-0.00293,0.0001500000000000006,0.0,12.393,0.144,0.0,6.09,0.045,6.09,21.920000000000005,0.0
4.066666666666666,-0.3546399409254812,1.7627057109398732,9.637250185873611,0.007282470252250015,0.0012297976964860224,0.0007097917011264593,0.0,12.49455559448876,0.14510845074776357,0.0,6.114999999999999,0.044971435487541206,6.114999999999999,22.012996632996632,0.0
4.083333333333333,0.15532681594737618,1.3795985790872938,9.347272539918485,-0.003331603928856513,-0.0024026555460020284,0.0021581996159023642,0.0,12.597383089703747,0.1453352701689614,0.0,6.14,0.044693778746105375,6.14,22.108013468013468,0.0
4.1,-0.286,1.4247,10.145000000000001,-0.007279999999999999,-0.00467,-0.00275,0.0,12.7,0.146,0.0,6.165,0.044,6.165,22.190000000000005,0.0
4.116666666666666,-0.2936293880640661,1.5384370846598676,9.55388252854085,-0.0029996811656118625,0.001845793742888667,0.004776153063481131,0.0,12.803329338801175,0.14696320496271936,0.0,6.189999999999999,0.04399467440801952,6.189999999999999,22.28299663299663,0.0
4.133333333333333,-0.015977229671131406,1.560186516306529,10.128883019733648,0.007107389873853765,0.0023834816992854076,-0.005559104781252683,0.0,12.90668003920857,0.14804405647759752,0.0,6.214999999999999,0.04399806337615402,6.214999999999999,22.378013468013467,0.0
4.15,0.12260000000000003,1.5137999999999998,9.9267,-0.002499999999999999,0.00771,-0.0059299999999999995,0.0,13.010000000000002,0.149,0.0,6.239999999999999,0.044,6.239999999999999,22.46,0.0
4.166666666666667,0.16837615858029592,1.586878328660978,10.151247298720383,-0.007941454497199182,-0.0005766897705281871,0.00026427922701009374,0.0,13.115114224567517,0.148864489576749,0.0,6.265,0.0441065153285468,6.265,22.552996632996635,0.0
4.183333333333334,0.16256524373102638,1.4794895409144568,9.956158209937904,0.002348742665995401,-0.0018292058475222206,0.0011451434922806344,0.0,13.21882407884525,0.15002709930967859,0.0,6.29,0.04289352210356622,6.29,22.64801346801347,0.0
4.2,-0.4547,1.4406,8.9438,0.0009400000000000002,-0.0054,0.0009000000000000002,0.0,13.325000000000001,0.151,0.0,6.315000000000001,0.043,6.315000000000001,22.730000000000004,0.0
4.216666666666667,0.010264650006779195,1.31012703886176,10.349125049751688,0.004189033433917703,0.005859451971155102,-0.006477646752374066,0.0,13.42989800024175,0.15166485998950946,0.0,6.340000000000001,0.04299933883520005,6.340000000000001,22.822996632996638,0.0
4.233333333333333,0.006148175819521074,1.4186414171841046,9.487095207449151,-0.001883376350549519,-0.0015214110563163763,0.01117151266625176,0.0,13.536353543498347,0.15189159887063639,0.0,6.364999999999999,0.04298082253077557,6.364999999999999,22.918013468013463,0.0
4.25,-0.004599999999999993,1.6692000000000002,10.0213,0.0003799999999999999,-0.0013200000000000004,0.0065200000000000015,0.0,13.643,0.153,0.0,6.390000000000001,0.043000000000000003,6.390000000000001,23.0,0.0
4.266666666666667,-0.023260541260382503,1.3523714613550235,9.838590755139997,0.0015712483408585093,-0.0029150558645339533,-0.0023358082857321727,0.0,13.749696563369755,0.1537028039443491,0.0,6.415,0.041927723542169594,6.415,23.09299663299663,0.0
4.283333333333333,0.7139369444222187,1.654157751129364,10.179222707993237,0.007278327724507728,0.004369699509443843,0.005947463919310324,0.0,13.856654872794156,0.15427013316438445,0.0,6.44,0.041990965614917816,6.44,23.188013468013466,0.0
4.3,0.10829999999999998,1.4507,9.9186,-0.007070000000000001,-0.005420000000000001,-0.0009699999999999999,0.0,13.964000000000002,0.15500000000000003,0.0,6.465,0.042,6.465,23.27,0.0
4.316666666666666,-0.10491055524917635,1.105627532696952,10.141775636288257,0.0039027233400467697,0.00018914209957205682,-0.0004334506735737004,0.0,14.072345675615544,0.15572730652399866,0.0,6.49,0.042106594411803394,6.49,23.362996632996627,0.0
4.333333333333333,-0.093603344913327,1.4364689873885226,9.70363827951691,0.003894844547603996,-0.0015425152624885263,0.0008864616050747308,0.0,14.18059262760691,0.15627273085575666,0.0,6.514999999999999,0.04089340560205523,6.514999999999999,23.45801346801347,0.0
4.35,0.22810000000000002,1.8766,9.8493,-0.0010500000000000002,0.00316,0.00228,0.0,14.290000000000001,0.15699999999999997,0.0,6.539999999999999,0.041,6.539999999999999,23.540000000000003,0.0
4.366666666666666,-0.4713530138855714,1.5826800512344217,9.631970794387856,0.003443720131779301,0.007540249848842205,0.002566318175266199,0.0,14.398923179863525,0.15772727268059186,0.0,6.564999999999998,0.041009033423294323,6.564999999999998,23.632996632996626,0.0
4.383333333333333,0.21389218022430995,1.6391509351323637,9.750851810653627,0.0047753309213927845,-8.7538356722908e-05,0.002020259932631562,0.0,14.508986443505325,0.15827272726777702,0.0,6.59,0.04107226738598132,6.59,23.728013468013465,0.0
4.4,-0.08339999999999997,1.0666999999999998,10.2987,-0.007110000000000001,0.00634,-0.0036900000000000006,0.0,14.619,0.159,0.0,6.615,0.039999999999999994,6.615,23.81,0.0
4.416666666666667,0.3361370528601877,1.2720857439400945,9.810950708380176,0.00795760495475999,0.0018247821538877867,-0.0013075748857758226,0.0,14.729716547631089,0.15972727272743245,0.0,6.64,0.0400198737897693,6.64,23.902996632996633,0.0
4.433333333333334,-0.05738328561195381,1.52812434714555,10.0466137702068,-0.00531665385841829,-0.003315270025724939,-0.0008068750526347884,0.0,14.84022227453465,0.16027272727363226,0.0,6.665,0.040007229169680934,6.665,23.99801346801347,0.0
4.45,0.04260000000000001,1.2664,9.553900000000002,-0.0002300000000000006,0.00467,-0.00087,0.0,14.952000000000002,0.161,0.0,6.69,0.04000000000000001,6.69,24.080000000000002,0.0
4.466666666666667,-0.05792510873310201,1.4149228175974522,9.725401523561493,0.0061669592887975905,0.0030056188844448826,-0.004495434206924383,0.0,15.063555594488767,0.16172727265833414,0.0,6.715000000000001,0.03930604648743079,6.715000000000001,24.17299663299664,0.0
4.483333333333333,-0.16510080458524465,1.521792101875594,10.197637818903326,0.003895766277096302,-0.004021407462744205,0.003985426323237971,0.0,15.17638308970375,0.16227272662246825,0.0,6.739999999999998,0.03902714709835205,6.739999999999998,24.268013468013468,0.0
4.5,-0.11990000000000003,1.44,9.9038,0.004539999999999999,0.0043,0.00207,0.0,15.289,0.16300000000000003,0.0,6.765000000000001,0.039,6.765000000000001,24.35,0.0
4.516666666666667,0.0706787069426669,1.746153574757936,9.8310980849574,0.002104610696502632,0.0014097381004198497,0.005353422180466883,0.0,15.402329338801183,0.16372732263868414,0.0,6.790000000000002,0.03910617301402593,6.790000000000002,24.44299663299664,0.0
4.533333333333333,0.14631395348188286,1.7480383393697525,9.553727566005032,0.0011633507223005948,0.012749087867332054,0.0016441429542611388,0.0,15.51568003920857,0.1642731980593441,0.0,6.814999999999999,0.03789382717899582,6.814999999999999,24.538013468013467,0.0
4.55,0.036,1.0564,9.983300000000002,-0.00442,-0.00957,-0.00055,0.0,15.629,0.165,0.0,6.84,0.038,6.84,24.62,0.0
4.566666666666666,-0.2029253844352877,1.9669372058111023,10.564629411711108,0.0014071186653566489,0.008513626041535284,0.003262960734034932,0.0,15.744114224567513,0.16569113693437573,0.0,6.864999999999999,0.037972839505938626,6.864999999999999,24.712996632996635,0.0
4.583333333333333,-0.2316200348184565,1.070550194418532,9.697671060132194,0.004197199666215387,-0.004513023300467044,0.005443593310168033,0.0,15.857824078845246,0.16589484137537974,0.0,6.889999999999999,0.0376938271605329,6.889999999999999,24.808013468013463,0.0
4.6,0.037000000000000005,1.5248999999999997,9.8177,0.00428,-0.004359999999999999,-0.00018999999999999985,0.0,15.974,0.167,0.0,6.915000000000001,0.037,6.915000000000001,24.89,0.0
4.616666666666666,0.14772925384068922,1.589361269880122,9.844511539922502,-0.0006881540445077374,0.0060598226432787465,-0.002654401029355685,0.0,16.08889800024174,0.16766731465103157,0.0,6.939999999999999,0.03700246913084469,6.939999999999999,24.982996632996624,0.0
4.633333333333333,-0.040805041204308154,1.4803505312321872,10.221617490868686,-0.00803294609907814,-0.004281699811043572,-0.0018260698861064665,0.0,16.205353543498347,0.1678986832027733,0.0,6.964999999999999,0.03707160489150458,6.964999999999999,25.078013468013463,0.0
4.65,0.18469999999999998,1.4905999999999997,9.649599999999998,-0.00557,0.00132,0.0035999999999999995,0.0,16.322,0.16899999999999998,0.0,6.99,0.036,6.99,25.16,0.0
4.666666666666667,-0.2753136554805752,1.5950404380162224,9.809049017778378,0.0052164095578468945,-0.000977441997410791,-0.005999948814147508,0.0,16.43869656336975,0.1688767594224096,0.0,7.014999999999999,0.03601728754027812,7.014999999999999,25.25299663299663,0.0
4.683333333333334,0.2051920889483069,1.5246133416211665,9.915024810194748,-0.005150149859766885,0.006295908717916374,0.0025724857125209426,0.0,16.555654872794157,0.17012518648343197,0.0,7.040000000000001,0.035982749908659364,7.040000000000001,25.348013468013466,0.0
4.7,-0.112,1.643,10.2195,0.00301,0.00504,-0.00579,0.0,16.672999999999995,0.17,0.0,7.065000000000001,0.036000000000000004,7.065000000000001,25.43,0.0
4.716666666666667,0.00010175854461238511,1.1536690137852867,9.765432921871005,0.0065161526819639305,0.009270405704254057,0.0032106758056778643,0.0,16.791345675615553,0.1709662709318225,0.0,7.090000000000002,0.03492579615223223,7.090000000000002,25.522996632996634,0.0
4.733333333333333,0.15637708707955825,1.5983271720816428,9.879775483689313,-0.007872629503765908,-0.0007606564047307247,-0.003651363756805573,0.0,16.90959262760691,0.17213296945915732,0.0,7.114999999999999,0.03497301679466137,7.114999999999999,25.61801346801347,0.0
4.75,-0.007400000000000004,1.6671000000000002,9.760200000000001,-0.0013900000000000008,-0.007530000000000002,-0.004320000000000001,0.0,17.029,0.172,0.0,7.14,0.035,7.14,25.7,0.0
4.766666666666667,-0.10437804934020946,1.3686787666208313,9.74842665873558,-0.0019153957442183348,-0.00325776936410632,-0.004931927089461384,0.0,17.147923179863536,0.173098641493682,0.0,7.165000000000001,0.03392852046581503,7.165000000000001,25.792996632996637,0.0
4.783333333333333,0.04777834693189229,1.7605103675610458,9.747639813563348,0.0030102068825661943,0.001963772751551193,0.004290800140693535,0.0,17.267986443505325,0.17330862879037065,0.0,7.189999999999999,0.03399753520096176,7.189999999999999,25.88801346801347,0.0
4.8,-0.4045,1.2985,9.9324,-0.0144,-0.0015000000000000007,0.006679999999999999,0.0,17.388,0.174,0.0,7.215,0.03400000000000001,7.215,25.97,0.0
4.816666666666666,0.22750966746528264,1.479352100881301,9.987403190618457,0.006288143909827185,-0.0006209416469480592,-0.006488425998727252,0.0,17.50871654763109,0.1746913617164756,0.0,7.24,0.033306868079178584,7.24,26.062996632996622,0.0
4.833333333333333,0.14532566016407716,1.2857518989063503,9.928006903857801,0.004047661340666901,-0.005030815718655272,0.0063420618945941075,0.0,17.629222274534648,0.17490126779396062,0.0,7.264999999999998,0.03303371993124593,7.264999999999998,26.158013468013465,0.0
4.85,0.06020000000000002,1.3227,9.9914,-0.0023800000000000006,-0.0027399999999999994,-0.00172,0.0,17.751,0.176,0.0,7.290000000000001,0.033,7.290000000000001,26.24,0.0
4.866666666666666,-0.0828952695950678,1.4846853805096436,9.538130000156148,0.0061080939183549565,-0.0028212189860935873,0.002130498315746911,0.0,17.872555594488755,0.17587399429646208,0.0,7.314999999999998,0.03230639761631886,7.314999999999998,26.332996632996633,0.0
4.883333333333333,0.2896473979716519,1.6525000094229019,10.027587719341483,-0.0010966471548942945,-0.005450970223115462,-0.0062217599748888045,0.0,17.99538308970375,0.1770994143080579,0.0,7.339999999999998,0.0320336790214195,7.339999999999998,26.428013468013464,0.0
4.9,0.2984,1.6532,9.6762,-0.0019699999999999995,0.0007299999999999997,-0.009479999999999999,0.0,18.117999999999995,0.177,0.0,7.365000000000001,0.031999999999999994,7.365000000000001,26.51,0.0
4.916666666666667,-0.11428633245904037,1.5904287064423102,9.707210029673691,-0.0007185111692598785,-0.0020413272363511226,0.0005583861386898821,0.0,18.24132933880118,0.1776849157930862,0.0,7.389999999999999,0.03130570215045664,7.389999999999999,26.602996632996636,0.0
4.933333333333334,-0.3311380879346352,1.7720412789103714,9.698521329939625,-0.003469565641348235,0.009137331328146406,0.005019937702150013,0.0,18.364680039208576,0.17790055094986187,0.0,7.414999999999999,0.031027113005477423,7.414999999999999,26.698013468013464,0.0
4.95,0.21490000000000004,1.3628999999999998,9.443,-0.00224,-0.00837,0.0013800000000000002,0.0,18.488,0.179,0.0,7.440000000000001,0.031,7.440000000000001,26.780000000000005,0.0
4.966666666666667,0.26812959957268323,1.5569496737663304,9.604997404975235,-0.0011060073740743743,-0.006873417451130533,-0.0001802108757396235,0.0,18.61311422456752,0.17887660113875187,0.0,7.465,0.031105986193791485,7.465,26.872996632996635,0.0
4.983333333333333,-0.06317543699146293,1.3494696150199044,9.602369404368522,0.0011336529725030037,0.0071119775344147245,0.007162048803389591,0.0,18.736824078845245,0.18012392021416077,0.0,7.490000000000001,0.029892060568483404,7.490000000000001,26.968013468013467,0.0
5.0,-0.3664000000000001,1.5139,10.0856,0.0022000000000000006,0.00954,0.006540000000000003,0.0,18.863,0.18000000000000002,0.0,7.515,0.030000000000000002,7.515,27.05,0.0
5.016666666666667,-0.15601042483090347,1.2096371163616997,9.767990990494273,-0.004623631482177889,-0.0009248085154870341,-0.0016416380291894722,0.0,18.987898000241753,0.18106326715800092,0.0,7.540000000000002,0.030108441692645423,7.540000000000002,27.142996632996635,0.0
5.033333333333333,0.15301372902175933,1.5690981874192316,9.450466944289749,0.003572220956521252,0.003875007829529241,0.0012148767921676164,0.0,19.114353543498343,0.1809367695532627,0.0,7.5649999999999995,0.02889881319032838,7.5649999999999995,27.238013468013467,0.0
5.05,-0.0229,1.3234,10.3751,-0.00022000000000000014,-0.007680000000000001,-0.00407,0.0,19.241000000000003,0.182,0.0,7.590000000000001,0.029000000000000005,7.590000000000001,27.32,0.0
5.066666666666666,-0.16673017015126407,1.403092895176525,9.9431847364362,0.004111496767325997,0.005992560441421228,0.0015528106755450957,0.0,19.367696563369744,0.18187353202414294,0.0,7.614999999999999,0.028308154256838643,7.614999999999999,27.412996632996627,0.0
5.083333333333333,-0.4218643747686784,1.196205656425613,10.317751818747059,-0.0007282921607273748,-0.005002090557983722,-0.002856550036535396,0.0,19.494654872794154,0.18309936766807303,0.0,7.639999999999998,0.028033856300448072,7.639999999999998,27.508013468013463,0.0
5.1,-0.18649999999999997,1.4066000000000003,9.5474,0.0022,0.0022799999999999995,0.00408,0.0,19.622,0.183,0.0,7.665,0.028,7.665,27.589999999999996,0.0
5.116666666666666,0.3081499106441136,1.6196289980581944,9.668867237101896,-0.007419657691520768,-0.0037078399623228777,-0.005987365139425295,0.0,19.75034567561554,0.18368473254768775,0.0,7.6899999999999995,0.02730639487471622,7.6899999999999995,27.682996632996627,0.0
5.133333333333333,-0.3624249150225166,1.46713248635203,9.85996443097588,-0.005329437330777903,0.006226704298693793,-0.0017004281182646526,0.0,19.87859262760691,0.18389881653962947,0.0,7.714999999999999,0.02703366972971013,7.714999999999999,27.77801346801347,0.0
5.15,0.014900000000000038,1.3418,9.7682,0.00395,0.0025100000000000005,0.005559999999999999,0.0,20.007999999999996,0.185,0.0,7.739999999999999,0.026999999999999996,7.739999999999999,27.859999999999996,0.0
5.166666666666667,-0.30641624729405365,1.4365902884691575,9.700057824069606,-0.00454155032877907,-0.004107909200978932,-0.004068597879759593,0.0,20.136923179863537,0.18500973307951607,0.0,7.764999999999998,0.026306400893108324,7.764999999999998,27.952996632996626,0.0
5.183333333333334,-0.10744159335645811,1.537292743237142,10.001474228805929,0.0019894381627457583,0.0010763264515978362,0.0040539150677636965,0.0,20.26698644350533,0.18530560578834504,0.0,7.79,0.026033703833862207,7.79,28.04801346801347,0.0
5.2,0.1308,1.2879,9.613500000000002,-0.00616,0.00654,0.00383,0.0,20.397000000000002,0.18600000000000003,0.0,7.815000000000001,0.026,7.815000000000001,28.13,0.0
5.216666666666667,-0.1273609438324149,1.6181910391570045,9.934705173537516,0.0018369105423661322,-0.0020858985286878497,-0.0006436958403094918,0.0,20.52771654763109,0.18589814751229178,0.0,7.840000000000001,0.025303802959273144,7.840000000000001,28.222996632996633,0.0
5.233333333333333,0.019331097695040444,1.4697658544081378,10.055530950586382,0.007532874169396645,0.006370352151586946,0.0004592523906606426,0.0,20.658222274534648,0.18710185195784435,0.0,7.865,0.025009198998498017,7.865,28.318013468013476,0.0
5.25,-0.273,1.5396,9.765699999999999,-0.0043900000000000015,0.01281,0.009180000000000002,0.0,20.790000000000003,0.187,0.0,7.890000000000001,0.025,7.890000000000001,28.4,0.0
5.266666666666667,-0.056293751377856596,1.2540677322317733,10.14998542366316,-0.005447237899812879,0.0007065921192295982,-0.004817095217684951,0.0,20.921555594488765,0.1876944309842091,0.0,7.915000000000001,0.02392544177829912,7.915000000000001,28.49299663299664,0.0
5.283333333333333,-0.29088795267580114,1.4748064430563272,10.407043472583275,0.000764848379336076,0.00015390098480207645,0.002202539279195402,0.0,21.054383089703745,0.18799061376938703,0.0,7.94,0.02397288792024499,7.94,28.588013468013465,0.0
5.3,0.07970000000000002,1.6218,9.2799,0.008310000000000001,0.0005799999999999996,-0.004870000000000001,0.0,21.187,0.188,0.0,7.965,0.024,7.965,28.67,0.0
5.316666666666666,-0.29564824377787713,1.6443560102282477,10.217748094357445,0.0072814770701825375,0.006538759761923092,0.005216929740493173,0.0,21.320329338801177,0.18907456066110534,0.0,7.989999999999998,0.02293560881143042,7.989999999999998,28.76299663299663,0.0
5.333333333333333,0.06791330625282926,1.279999002446353,9.58169119541644,-0.00011828599408391525,-0.005435776259576444,0.0011930502124072996,0.0,21.45368003920857,0.18902711233926184,0.0,8.015,0.023064391188574705,8.015,28.858013468013464,0.0
5.35,-0.1659,1.5036,9.7297,0.00098,0.0085,0.00485,0.0,21.587,0.189,0.0,8.04,0.022,8.04,28.94,0.0
5.366666666666666,-0.08459256827060976,1.6528401217707949,9.414972039330888,0.004603765013501953,-0.0048549560476286845,-0.005621518380874232,0.0,21.722114224567505,0.19006439111623857,0.0,8.064999999999998,0.022027112079397823,8.064999999999998,29.032996632996635,0.0
5.383333333333333,-0.08959762620299322,1.697834304307578,9.89815326812553,0.0015860631894365478,0.0033595924301288945,0.007523181011856533,0.0,21.85582407884525,0.18993560816058996,0.0,8.09,0.02207455821833175,8.09,29.12801346801346,0.0
5.4,0.0984,1.3529000000000002,9.945599999999999,0.0024499999999999995,-0.0021200000000000004,-0.00253,0.0,21.991999999999997,0.19099999999999998,0.0,8.114999999999998,0.021,8.114999999999998,29.21,0.0
5.416666666666667,0.46407137539902127,1.45234767956641,9.590758393034452,-0.0022999394380011223,-0.0017009516488942877,-0.001280955321086328,0.0,22.12689800024175,0.1909729378488387,0.0,8.139999999999999,0.020990801260103133,8.139999999999999,29.30299663299663,0.0
5.433333333333334,0.09768287951857983,1.6327535677575546,9.914831570600965,0.01032075906400347,0.004271597586838398,0.005611304611190974,0.0,22.263353543498347,0.1909259127269441,0.0,8.165,0.020696199479967734,8.165,29.398013468013467,0.0
5.45,-0.37270000000000003,1.3329,9.842,-0.008200000000000002,-0.0009700000000000006,-0.0003500000000000005,0.0,22.400000000000002,0.192,0.0,8.19,0.02,8.19,29.480000000000004,0.0
5.466666666666667,0.09147603862517097,1.3542398721509963,9.940632885206686,0.005701276988251915,0.00688357947655704,-0.0023253476710258796,0.0,22.53669656336975,0.19197305076896945,0.0,8.215000000000002,0.01996610893926607,8.215000000000002,29.57299663299664,0.0
5.483333333333333,0.23906692883852776,1.5631493058971406,9.641711839004051,-0.0002848847869504728,0.0007815324768922752,-0.0003688306251537852,0.0,22.673654872794156,0.19192579975408836,0.0,8.24,0.01969183309981854,8.24,29.66801346801347,0.0
5.5,0.0971,1.3739,9.9285,-0.00361,0.00071,-0.0012700000000000003,0.0,22.811000000000003,0.19300000000000003,0.0,8.265,0.019,8.265,29.75,0.0
5.516666666666667,-0.37546408075856086,1.683433031256711,9.39649197658065,-0.004679044500970351,-0.003181330119182841,0.007306372847345716,0.0,22.949345675615554,0.19298274986173336,0.0,8.290000000000001,0.019101882266821805,8.290000000000001,29.842996632996634,0.0
5.533333333333333,0.20580508582631102,1.489856370117534,9.927437731203312,-0.0100893584967014,0.001399629883940738,-0.0109012653333775,0.0,23.087592627606913,0.19301728753530198,0.0,8.314999999999998,0.01789811773291028,8.314999999999998,29.938013468013466,0.0
5.55,-0.3204,1.7126000000000001,10.135000000000002,-0.015000000000000003,-0.00998,-0.00424,0.0,23.227000000000004,0.193,0.0,8.34,0.018,8.34,30.020000000000003,0.0
5.566666666666666,0.1263147268654339,1.7163047572498928,9.328283477829805,0.005971015788310211,-0.004761684299247434,0.0032580728594892136,0.0,23.36592317986353,0.19407160489166478,0.0,8.364999999999998,0.017308166918774622,8.364999999999998,30.112996632996627,0.0
5.583333333333333,0.12682500697347593,1.395886877167685,9.940363362410679,-0.0009814154532864917,0.009091246364684002,0.005963080138791768,0.0,23.505986443505325,0.19400246913175087,0.0,8.389999999999999,0.01703389123610923,8.389999999999999,30.208013468013466,0.0
5.6,-0.25129999999999997,1.4453,10.173,0.00121,-0.011329999999999998,-0.0076,0.0,23.646,0.194,0.0,8.415000000000001,0.017000000000000005,8.415000000000001,30.29,0.0
5.616666666666666,0.07649812649456053,1.539533830932002,9.57637377833073,-0.0025767566057776454,-0.004009237225224838,-0.00486556756213945,0.0,23.786716547631084,0.19469382709150623,0.0,8.44,0.016303787058893078,8.44,30.382996632996633,0.0
5.633333333333333,-0.34597680129837266,1.5742445604763486,9.742213809419024,0.003121183713142372,-0.0073882942117659825,-0.005300236633210004,0.0,23.92722227453465,0.19497283885485037,0.0,8.465,0.016009071768448586,8.465,30.47801346801347,0.0
5.65,0.3118000000000001,1.4146000000000003,9.4301,-0.0006900000000000001,0.003779999999999999,0.0003600000000000003,0.0,24.069,0.195,0.0,8.49,0.016,8.49,30.559999999999995,0.0
5.666666666666667,0.13734909848703464,1.4062979442782064,10.150067677384651,-0.003198492464515673,0.003838694621726968,0.001787656944417923,0.0,24.210555594488763,0.19489387715405954,0.0,8.515,0.014935187627864764,8.515,30.652996632996633,0.0
5.683333333333334,0.06559394787589125,1.7663809675867823,9.946960840427394,-0.008279666936151231,-0.002239940750366807,-0.0011513873241789049,0.0,24.35338308970375,0.19610664440104014,0.0,8.540000000000001,0.015064815073780193,8.540000000000001,30.74801346801347,0.0
5.7,0.14390000000000003,1.7174,9.5676,-0.00064,0.01096,0.002979999999999999,0.0,24.496000000000002,0.19600000000000004,0.0,8.565,0.014000000000000002,8.565,30.83,0.0
5.716666666666667,-0.15754543110390334,1.6740989560935082,9.561290758126106,-0.0006995138994388411,-0.0030552985347022587,-0.0020417639003032836,0.0,24.639329338801186,0.19599096522123063,0.0,8.590000000000002,0.013990740737392548,8.590000000000002,30.92299663299664,0.0
5.733333333333333,0.1335770576633423,1.2511534252100933,9.889378461879533,-0.0019423219397625047,-0.004886824744897569,-0.0037475628837053275,0.0,24.782680039208575,0.1959277259031945,0.0,8.614999999999998,0.01369444444432902,8.614999999999998,31.018013468013468,0.0
5.75,0.0901,1.4082,10.369800000000001,-0.007159999999999998,0.012460000000000002,-0.0035599999999999994,0.0,24.926,0.197,0.0,8.64,0.013,8.64,31.1,0.0
5.766666666666667,-0.32008660887720186,1.7102430292024784,9.58577158747945,-0.0023975184158749846,-0.006614036978744796,0.004841629097325016,0.0,25.071114224567527,0.19698063600830304,0.0,8.665000000000003,0.013101851833263596,8.665000000000003,31.192996632996635,0.0
5.783333333333333,0.06108667423742775,1.5206169580875801,9.832221647682461,0.001612232805654991,-0.001790055054999043,0.006220248460078365,0.0,25.214824078845247,0.19699757946394275,0.0,8.69,0.011898147972772144,8.69,31.288013468013467,0.0
5.8,0.23879999999999998,1.9006999999999998,10.0274,-0.0011800000000000003,3.999999999999978e-05,0.0019000000000000002,0.0,25.361,0.197,0.0,8.715,0.012,8.715,31.370000000000005,0.0
5.816666666666666,-0.002953445515374809,1.6503516050065565,9.983868795663332,-0.003306412266555157,0.0021539970718913084,0.0028237789184378122,0.0,25.505898000241743,0.19702856476739591,0.0,8.739999999999997,0.011305569016790633,8.739999999999997,31.462996632996624,0.0
5.833333333333333,-0.025551427778999818,1.4667281786354929,10.11709306045867,0.005172066941758988,-0.0028996117322666833,-0.004775655546234054,0.0,25.652353543498343,0.1973062236837476,0.0,8.765,0.011009386231611554,8.765,31.55801346801347,0.0
5.85,-0.12419999999999999,1.922,9.9868,0.00284,0.00207,-0.00049,0.0,25.798999999999996,0.19800000000000004,0.0,8.79,0.010999999999999998,8.79,31.64,0.0
5.866666666666666,0.07254412498563736,1.4527245756718528,9.62218701893036,-0.0032422228203426566,-0.0031665097371516232,-0.0015786771576883204,0.0,25.94569656336974,0.19800513906373143,0.0,8.814999999999998,0.009925439269599462,8.814999999999998,31.732996632996628,0.0
5.883333333333333,-0.06274555483934113,1.4036817098150902,10.179117395041299,-0.0014938838242773195,0.0028752455125113626,0.002693626272889118,0.0,26.092654872794153,0.19800017720645793,0.0,8.84,0.009972887007127082,8.84,31.828013468013467,0.0
5.9,0.5672,1.3486,9.939,-0.00457,-0.0008800000000000004,-0.005029999999999998,0.0,26.239999999999995,0.198,0.0,8.865,0.010000000000000002,8.865,31.909999999999997,0.0
5.916666666666667,-0.23634489592878816,1.5843519048673642,9.713262832136094,-0.009278339879173472,0.002468311885281035,0.011557742506788374,0.0,26.388345675615547,0.19802853086881322,0.0,8.889999999999999,0.008935659052455126,8.889999999999999,32.002996632996634,0.0
5.933333333333334,-0.2448298315023478,1.294039841170232,9.688198114838924,0.00970500702028932,0.004682231044453315,-0.004016062322093564,0.0,26.536592627606915,0.19830621958145228,0.0,8.915,0.009064865052827978,8.915,32.09801346801347,0.0
5.95,0.25050000000000006,1.5359000000000003,10.065499999999998,-0.0006700000000000002,-0.00232,0.0027,0.0,26.686,0.199,0.0,8.940000000000001,0.008,8.940000000000001,32.18,0.0
5.966666666666667,-0.08180243551496634,1.531833337398392,9.86264473674476,-0.0007678528061961599,0.0019546307194658508,-0.001558008868531677,0.0,26.83492317986354,0.19900517858215316,0.0,8.965000000000002,0.007990740086226687,8.965000000000002,32.27299663299664,0.0
5.983333333333333,-0.13537865968515486,1.4381843940476202,9.498091906041644,0.006044356690383998,-0.0013334846596830294,0.0024136430708596507,0.0,26.984986443505328,0.1990005495258031,0.0,8.989999999999998,0.0076944443750548205,8.989999999999998,32.368013468013466,0.0
6.0,-0.049599999999999984,1.4594000000000003,9.6427,0.0074600000000000005,0.0072900000000000005,0.005380000000000002,0.0,27.135,0.199,0.0,9.015,0.007,9.015,32.45000000000001,0.0
6.016666666666667,0.12683413468713156,1.5829488557357447,9.925818135045212,0.005464882676340783,-0.006769100926699587,0.007102900532399379,0.0,27.285716547631093,0.1989999534300918,0.0,9.040000000000001,0.007101851852755865,9.040000000000001,32.54299663299664,0.0
6.033333333333333,0.12363870281775831,1.2676292387208807,9.94298042952552,-0.0053173990064166185,-0.0029030411374941527,-0.006698928387570702,0.0,27.436222274534646,0.19899962744084215,0.0,9.065,0.005898148148244004,9.065,32.63801346801346,0.0
6.05,-0.0764,1.495,9.709000000000001,0.00079,0.0009700000000000002,-0.00648,0.0,27.588000000000005,0.199,0.0,9.090000000000002,0.006000000000000001,9.090000000000002,32.72,0.0
6.066666666666666,-0.4587073742657906,1.6849062210317243,9.373262527565382,0.0012457580983472709,-0.008885930159373666,-0.006947902514562577,0.0,27.739555594488756,0.1990285380313795,0.0,9.114999999999998,0.0053055555555543395,9.114999999999998,32.81299663299663,0.0
6.083333333333333,0.27306152332804734,1.6328615868385508,9.52805489526358,0.004127709140381008,0.0032026756126008653,-0.0001035645437284755,0.0,27.892383089703745,0.19930622034150777,0.0,9.14,0.005009259259259127,9.14,32.90801346801346,0.0
6.1,0.17109999999999997,1.3877,9.9414,-0.0029600000000000004,0.0028899999999999998,-0.0005800000000000002,0.0,28.045,0.2,0.0,9.165,0.005,9.165,32.99,0.0
6.116666666666666,-0.32251738847852707,1.7099100802681262,9.830489685403624,0.0019832911571718076,0.003934388164966866,-0.0052592577670343196,0.0,28.198329338801173,0.20000517851781638,0.0,9.189999999999998,0.003935185185185183,9.189999999999998,33.082996632996625,0.0
6.133333333333333,0.13681470397988987,1.141811519798428,10.119056881114648,-0.00017624085176766078,0.0013529346511997455,-0.003840341952896034,0.0,28.351680039208567,0.2000005490112162,0.0,9.215,0.004064814814814801,9.215,33.17801346801347,0.0
6.15,-0.031299999999999994,1.307,9.7034,-0.0017899999999999993,0.0015300000000000001,5.000000000000013e-05,0.0,28.504999999999995,0.2,0.0,9.24,0.003,9.24,33.25999999999999,0.0
6.166666666666667,-0.10688855245207447,1.402525294469224,9.861771906887292,0.006430332997871426,-0.0036870272026907763,0.008447562884733865,0.0,28.66011422456752,0.19999999284733744,0.0,9.265,0.0029907407407407404,9.265,33.35299663299663,0.0
6.183333333333334,0.19819279525837613,1.5224165976307384,10.257052066614849,-0.0010071102384372713,0.002254859141357404,0.0033363236259909912,0.0,28.813824078845254,0.1999999992416958,0.0,9.29,0.0026944444444444125,9.29,33.448013468013464,0.0
6.2,-0.08379999999999999,1.4671,9.7196,0.006020000000000003,0.0024500000000000004,-0.00499,0.0,28.970000000000002,0.20000000000000004,0.0,9.315,0.002,9.315,33.53,0.0
6.216666666666667,0.07827380822544885,1.6498878351319721,10.174790468948657,0.005526729495146876,-0.004774100824341199,0.004745951441933846,0.0,29.12489800024175,0.2000000000098794,0.0,9.340000000000003,0.0021018518518518383,9.340000000000003,33.62299663299664,0.0
6.233333333333333,-0.06707995252954611,1.3455866103660596,10.325139482324403,0.0013696090353888543,-0.0005161381795629116,-0.006674259560777995,0.0,29.281353543498348,0.2000000000010474,0.0,9.365,0.0008981481481481626,9.365,33.71801346801347,0.0
6.25,-0.2681,1.5278,9.5872,-0.00353,-0.004769999999999999,0.00248,0.0,29.438000000000002,0.20000000000000004,0.0,9.389999999999999,0.001,9.389999999999999,33.8,0.0
6.266666666666667,-0.12883008425873127,1.7651783662899665,9.983717463185544,0.00019084584886590013,-0.0024713833814941485,-0.0013004809189555617,0.0,29.59469656336976,0.19999999999998674,0.0,9.415000000000001,0.0003055555555555267,9.415000000000001,33.892996632996635,0.0
6.283333333333333,-0.3592553120212476,1.4442478677290391,9.493844212014508,-0.0006483499015695123,-0.0009334097302870829,0.006182042821680711,0.0,29.751654872794155,0.2000000000000022,0.0,9.440000000000001,9.25925925926035e-06,9.440000000000001,33.98801346801347,0.0
6.3,0.030800000000000004,0.9825000000000002,9.8473,-0.0031200000000000004,-0.0096,0.012470000000000002,0.0,29.909000000000002,0.20000000000000004,0.0,9.465,5.421010862427522e-20,9.465,34.07,0.0
6.316666666666666,-0.028737249343109995,1.4156083042725156,9.635214332865537,0.004463468518547615,0.0041045579149489924,-0.001979988340193937,0.0,30.067345675615538,0.19999999999971937,0.0,9.489999999999997,-0.0010648148148148283,9.489999999999997,34.16299663299663,0.0
6.333333333333333,0.19081474480166932,1.2643238204898226,10.047358426573663,-0.00365131733601245,0.00133367179625102,0.00544044184905644,0.0,30.225592627606908,0.19999999999735282,0.0,9.514999999999999,-0.0009351851851851921,9.514999999999999,34.258013468013466,0.0
6.35,-0.013100000000000014,1.2971,9.73,0.0038800000000000006,0.00402,-0.00911,0.0,30.384999999999998,0.2,0.0,9.54,-0.002,9.54,34.34,0.0
6.366666666666666,0.37519490497463426,1.3644611922849867,9.843612949572334,-0.0005857569811931805,-0.008978176671446894,-0.0017879607812017495,0.0,30.543923179863526,0.20000000020318698,0.0,9.564999999999998,-0.0020092592592592566,9.564999999999998,34.43299663299663,0.0
6.383333333333333,-0.2103347392141681,1.7188209124479616,10.31806235606879,0.0017658048783626113,0.00396614035580801,0.008245465869232837,0.0,30.703986443505325,0.20000000191655018,0.0,9.59,-0.002305555555555519,9.59,34.52801346801346,0.0
6.4,0.4252,1.3784,9.195199999999998,-0.00455,-0.00343,-0.00416,0.0,30.864000000000004,0.19999999999999998,0.0,9.614999999999998,-0.003,9.614999999999998,34.61,0.0
6.416666666666667,0.2749297514230221,1.7660181110456057,10.542380547113906,0.007917548827990763,0.006845352212786681,0.008958779115686521,0.0,31.024716547631083,0.19999985289288802,0.0,9.640000000000002,-0.00289814814814815,9.640000000000002,34.70299663299664,0.0
6.433333333333334,-0.3115968870777974,1.4561763079292231,10.057795779605822,0.003493400216386731,0.0004940439318505671,-0.0009188422847151872,0.0,31.18522227453465,0.19999861242033307,0.0,9.665000000000001,-0.004101851851851866,9.665000000000001,34.798013468013465,0.0
6.45,-0.12230000000000002,1.1802,10.0657,0.00154,0.0025300000000000006,-0.005470000000000001,0.0,31.347000000000005,0.2,0.0,9.69,-0.004000000000000001,9.69,34.88,0.0
6.466666666666667,-0.04010530560379799,1.3646449292167027,9.932641310322303,0.0036041092196128065,0.006509470910047041,0.008538177320620214,0.0,31.50855559448877,0.20010650534590524,0.0,9.715000000000002,-0.004694444444444473,9.715000000000002,34.97299663299664,0.0
6.483333333333333,-0.08525975721154043,1.3870432578963203,9.558678394503673,0.0009979940131265024,-0.0001672803490551896,-0.010076244328145115,0.0,31.67138308970375,0.198893494651167,0.0,9.739999999999998,-0.004990740740740741,9.739999999999998,35.06801346801347,0.0
6.5,0.29370000000000007,1.3786,10.0314,-0.009040000000000001,0.0007000000000000005,0.006070000000000001,0.0,31.834,0.19900000000000004,0.0,9.765,-0.005,9.765,35.15,0.0
6.516666666666667,0.2013040983130455,1.4840827656842257,9.73217744621405,-0.0004581793833311347,0.004645857061241739,-0.0018498999856605344,0.0,31.997329338801187,0.19900138778285795,0.0,9.79,-0.00606481481481481,9.79,35.242996632996636,0.0
6.533333333333333,0.035472219339278514,1.1150531232692844,9.69288734048657,0.00034967502065658465,-0.010349737882488733,0.0012060321581543678,0.0,32.160680039208565,0.19900014902366622,0.0,9.815,-0.005935185185185191,9.815,35.338013468013465,0.0
6.55,-0.32060000000000005,1.5591000000000002,10.059800000000001,-0.005659999999999999,-0.008370000000000002,-0.00463,0.0,32.324,0.199,0.0,9.84,-0.007000000000000001,9.84,35.419999999999995,0.0
6.566666666666666,-0.07825076193414814,1.498343826506622,10.414891334397756,0.0016662828305230182,-0.007018131397146823,0.003410893779337546,0.0,32.489114224567516,0.19899985097605677,0.0,9.864999999999998,-0.007009259259259259,9.864999999999998,35.51299663299663,0.0
6.583333333333333,0.25962480742647,1.3929510506929659,9.773272278401054,-0.0014719682280259314,0.007890099863394343,-0.005115482619870677,0.0,32.65282407884524,0.19899861221449522,0.0,9.89,-0.007305555555555522,9.89,35.60801346801347,0.0
6.6,0.24520000000000003,1.3879,10.1004,-0.0011800000000000003,0.00604,-0.0074199999999999995,0.0,32.819,0.199,0.0,9.915,-0.008,9.915,35.69,0.0
6.616666666666666,-0.017104309839659493,1.3385942509300521,9.304685338682274,-0.002316145470985252,-0.0007550218232261276,-0.006187936995547868,0.0,32.983898000241744,0.19910650555202544,0.0,9.939999999999998,-0.007898148148148147,9.939999999999998,35.782996632996635,0.0
6.633333333333333,-0.09199205536414654,1.608052841676999,10.122349763822365,0.0027786554036191243,0.004380399748047999,0.0006289401836144043,0.0,33.15035354349835,0.19789349657069588,0.0,9.965,-0.009101851851851875,9.965,35.878013468013464,0.0
6.6499999999999995,0.12349999999999267,1.3051000000000141,9.543200000000025,-0.007169999999999054,0.009050000000000382,0.006779999999999365,0.0,33.31699999999999,0.198,0.0,9.99,-0.009000000000000011,9.99,35.959999999999994,0.0
6.666666666666667,-0.16785113635433174,1.715640722379322,9.421190126295787,0.00400674186614289,0.007043931413285134,-0.0037000645578461893,0.0,33.483696563369755,0.19800124046864598,0.0,10.014999999999999,-0.009694444444442632,10.014999999999999,36.05299663299663,0.0
6.683333333333334,0.0829862391800462,1.3949915751554545,9.605198714216067,0.0012687893408912098,-0.005655073005523365,0.003645382275530326,0.0,33.650654872794156,0.1979987594905747,0.0,10.040000000000001,-0.009990740740723349,10.040000000000001,36.14801346801347,0.0
6.7,0.35679999999999995,1.3289,9.527900000000002,0.00245,0.00027000000000000006,-0.004780000000000001,0.0,33.818000000000005,0.198,0.0,10.065000000000001,-0.010000000000000002,10.065000000000001,36.23,0.0
6.716666666666667,-0.03381000666568121,1.455663487187836,10.040263223174819,0.0011965158652781343,0.0003731230495941305,0.005956158357245589,0.0,33.98634567561555,0.19810650625938503,0.0,10.090000000000002,-0.01106481481614972,10.090000000000002,36.32299663299664,0.0
6.733333333333333,-0.162085851718345,1.53201711614394,10.376381143751999,0.006972676605978903,0.0045980118061932085,-0.0023197817413098238,0.0,34.15459262760692,0.19689352114208045,0.0,10.114999999999998,-0.010935185197776658,10.114999999999998,36.41801346801347,0.0
6.75,-0.1632,1.5526000000000002,9.6462,-0.0016,-0.007270000000000002,-0.004420000000000001,0.0,34.324,0.197,0.0,10.140000000000002,-0.011999999999999999,10.140000000000002,36.50000000000001,0.0
6.766666666666667,-0.10087440807009476,1.2352982573220086,9.925091850692988,-0.0018683024016923884,0.0008242399397892884,0.0015940065044349433,0.0,34.49292317986354,0.19699933884772655,0.0,10.165000000000003,-0.012009258292786068,10.165000000000003,36.59299663299664,0.0
6.783333333333333,0.354274108604791,1.5710015218158462,9.999749505636766,0.005134829411893353,0.0019519327288937771,-0.002803031196848483,0.0,34.662986443505325,0.19698082253210353,0.0,10.19,-0.012305546439350789,10.19,36.68801346801347,0.0
6.8,-0.2323,1.4437000000000002,9.8579,-0.00419,-0.00713,0.0005999999999999997,0.0,34.833,0.197,0.0,10.215000000000002,-0.013,10.215000000000002,36.77,0.0
6.816666666666666,0.23111848646354458,1.3594945079869292,9.610136875113316,-0.005036688150938962,-0.007283950568394828,0.0010201694688686516,0.0,35.00371654763108,0.1959277235421591,0.0,10.239999999999997,-0.012898847873405062,10.239999999999997,36.86299663299663,0.0
6.833333333333333,0.13855714777658587,1.6260070151144148,9.660124923387764,-0.0008562078537178413,0.008244544326374859,-0.0056552613701515795,0.0,35.17422227453465,0.1959909656149805,0.0,10.264999999999997,-0.014108451971490433,10.264999999999997,36.95801346801346,0.0
6.85,-0.09930000000000001,1.5594,9.68,-0.00227,0.0009299999999999997,0.001999999999999999,0.0,35.346,0.196,0.0,10.29,-0.013999999999999999,10.29,37.04,0.0
6.866666666666666,0.4009568751300556,1.3870742564326664,9.742043900608891,-0.0009979948368565531,0.002748193800693287,-0.00033373900223908175,0.0,35.517555594488755,0.19610659440685216,0.0,10.314999999999998,-0.013891548028604152,10.314999999999998,37.13299663299662,0.0
6.883333333333333,-0.5014676173720827,1.556026942763351,9.738180035669828,0.0021170640870939172,-0.0027923953943583377,0.0028211520756162493,0.0,35.69038308970375,0.19489340555535264,0.0,10.339999999999996,-0.015101152127498811,10.339999999999996,37.228013468013465,0.0
6.8999999999999995,-0.0739000000000198,1.5216999999999974,9.339100000000073,-0.0035500000000004486,0.0009600000000006618,0.0028199999999995455,0.0,35.86299999999999,0.195,0.0,10.365,-0.015000000000000012,10.365,37.31,0.0
6.916666666666667,0.20806688234012816,1.1928030940143914,9.864279084051972,0.008988283368800334,0.0022601573850707262,-0.005889057774085154,0.0,36.03632933880118,0.19500903700800576,0.0,10.39,-0.015694453491259565,10.39,37.40299663299663,0.0
6.933333333333334,0.3242089407370103,1.4329049427358604,9.457307029407831,0.0020995865758867875,0.002091573040602343,0.004596714179830218,0.0,36.20968003920857,0.19507230119857272,0.0,10.415000000000001,-0.015990741052699903,10.415000000000001,37.49801346801347,0.0
6.95,-0.1657,1.5005000000000002,10.2254,0.0023,0.00489,-0.0034700000000000013,0.0,36.383,0.194,0.0,10.44,-0.016000000000000004,10.44,37.580000000000005,0.0
6.966666666666667,-0.05400191158796831,1.5126375289907474,10.329928875405063,0.003649354344225315,-0.004099177628820414,-0.002951395523203418,0.0,36.558114224567525,0.19401727846365785,0.0,10.465000000000003,-0.017064865040234654,10.465000000000003,37.67299663299663,0.0
6.983333333333333,0.10702415339689779,1.3538908127723035,9.437704747123352,0.00021706978552547403,0.0013149954797754397,-0.0015548108650629065,0.0,36.73182407884525,0.1939827489002223,0.0,10.489999999999998,-0.016935659051102826,10.489999999999998,37.768013468013464,0.0
7.0,-0.20570000000000008,1.8994999999999997,9.2322,0.00303,0.00783,-0.0016400000000000004,0.0,36.908,0.19399999999999998,0.0,10.515000000000002,-0.018,10.515000000000002,37.85000000000001,0.0
7.016666666666667,-0.12574955931412146,1.3946073981680982,9.660285493045407,-0.005560458217651323,0.0011200014364666899,0.002063490647306401,0.0,37.08289800024175,0.19292579974814694,0.0,10.540000000000001,-0.017972887008479373,10.540000000000001,37.94299663299664,0.0
7.033333333333333,0.0700854813832111,1.425442906415124,9.58218197921155,-0.004412555740913772,-0.005201633731203506,-0.014026981207780797,0.0,37.25935354349834,0.19297305059606756,0.0,10.565,-0.017925439282192694,10.565,38.038013468013474,0.0
7.05,-0.02330000000000001,1.5073999999999999,9.881600000000002,0.00304,0.004270000000000001,-0.0005799999999999998,0.0,37.43600000000001,0.193,0.0,10.59,-0.019000000000000003,10.59,38.120000000000005,0.0
7.066666666666666,-0.12304307091890543,1.5445987898918796,9.412518604171106,-0.0001464936537445828,0.001741100589755304,0.00029490761381195944,0.0,37.612696563369745,0.1919259261001793,0.0,10.614999999999998,-0.01900938526514522,10.614999999999998,38.21299663299662,0.0
7.083333333333333,0.3314206584834988,1.7440449426750493,9.953923785203534,0.004834768117259025,0.0003337518374345101,0.004762168261353352,0.0,37.789654872794145,0.1919730639912986,0.0,10.639999999999999,-0.019305559900650738,10.639999999999999,38.30801346801347,0.0
7.1,-0.2733,1.4888,9.4701,0.00419,0.0006799999999999996,0.00445,0.0,37.967,0.192,0.0,10.665,-0.02,10.665,38.38999999999999,0.0
7.116666666666666,-0.2162411694779756,1.376061312698738,9.707078420407878,-0.0025840623973848245,0.0029350234324095853,0.004014878434267546,0.0,38.14534567561553,0.19092592594425245,0.0,10.689999999999998,-0.01989884769304678,10.689999999999998,38.48299663299663,0.0
7.133333333333333,-0.37179777899567434,1.3929519301817768,8.983890125992708,0.005488586993447027,0.0038286367624154796,-0.0009754326046323655,0.0,38.32359262760691,0.19097306414817306,0.0,10.715,-0.021108451905907127,10.715,38.57801346801346,0.0
7.1499999999999995,0.2613000000000335,1.508700000000011,9.178899999999999,0.004020000000000634,-0.0064400000000004246,-0.001300000000000023,0.0,38.50299999999999,0.19100000000000006,0.0,10.740000000000002,-0.020999999999999994,10.740000000000002,38.65999999999999,0.0
7.166666666666667,0.020283106329751183,1.6052478532689007,9.741356872369675,-0.0037756639728495998,-0.0010784360249856194,-0.0009165236528104779,0.0,38.68192317986353,0.18992591248325844,0.0,10.764999999999999,-0.020891551635651928,10.764999999999999,38.75299663299664,0.0
7.183333333333334,0.08010837141100023,1.6412798279288734,9.07858795900619,-0.005668418039542594,0.004009528470110813,0.004596593048107136,0.0,38.86198644350532,0.18997293717584632,0.0,10.79,-0.022101186148517506,10.79,38.84801346801346,0.0
7.2,0.08830000000000002,1.3466,9.9116,0.0028500000000000014,0.005920000000000001,0.0015700000000000006,0.0,39.042,0.19,0.0,10.815,-0.022,10.815,38.93,0.0
7.216666666666667,-0.0663611465812674,1.2186151428406642,9.603838576519754,-0.0014467027408325052,-0.012006970972647963,-0.006435457503039788,0.0,39.222716547631094,0.18893565839884385,0.0,10.840000000000003,-0.022691842169030953,10.840000000000003,39.02299663299664,0.0
7.233333333333333,-0.3711038633065361,1.5970563530144086,9.910560886853535,-0.0030372596980603296,0.007229047173580451,-0.0056475638548157125,0.0,39.40322227453464,0.18906486498353403,0.0,10.865,-0.022966109900757276,10.865,39.11801346801347,0.0
7.25,-0.0951,1.3762000000000003,9.9734,0.0030600000000000002,0.0035800000000000007,-0.0069500000000000004,0.0,39.585,0.188,0.0,10.89,-0.023,10.89,39.20000000000001,0.0
7.266666666666667,-0.09592779630832653,1.4618109523241398,8.8911915051102,-0.00012192203462047989,-0.002366061259261284,-0.0072700219240407205,0.0,39.76655559448877,0.18799074008713,0.0,10.915,-0.023696199467441104,10.915,39.29299663299664,0.0
7.283333333333333,-0.16414096710482082,1.7096205896534398,9.978755884960881,0.0007733283240266683,-0.0016304228831175024,0.0005140822828568401,0.0,39.949383089703744,0.1876944443751552,0.0,10.94,-0.023990801258773863,10.94,39.38801346801347,0.0
7.3,0.1385,1.5069,10.0764,-0.009470000000000001,0.00364,0.003100000000000001,0.0,40.132000000000005,0.18700000000000003,0.0,10.965,-0.024,10.965,39.47,0.0
7.316666666666666,-0.1418661780424608,1.482470189295457,9.56903024221274,0.0020193669169426753,-0.0016357884332018002,-0.0013712620840633928,0.0,40.31532933880117,0.18710185185239694,0.0,10.989999999999998,-0.025074558218444298,10.989999999999998,39.56299663299663,0.0
7.333333333333333,0.14266775090893724,1.3617848860272321,9.593363586647751,-0.0024524468973520755,0.0025534165000251656,-0.0013643052298732098,0.0,40.498680039208566,0.18589814814487032,0.0,11.014999999999999,-0.025027112080297776,11.014999999999999,39.65801346801346,0.0
7.35,-0.15169999999999997,1.8406000000000002,9.465800000000002,0.006710000000000001,0.0002499999999999998,0.00031999999999999976,0.0,40.682,0.18599999999999997,0.0,11.039999999999997,-0.025,11.039999999999997,39.74,0.0
7.366666666666666,0.04838143980004182,1.6132460718411878,9.977698318045087,-0.002308244350280427,0.0032457757863722167,-0.0019295625475030853,0.0,40.86711422456751,0.1853055558144944,0.0,11.065,-0.026064391119637938,11.065,39.83299663299663,0.0
7.383333333333333,0.02094856827433031,1.491529334039552,9.691711085757252,0.007373040173574262,-0.012811641653156609,0.0014780893306946634,0.0,41.050824078845245,0.1850092617016966,0.0,11.09,-0.02593560816118839,11.09,39.92801346801346,0.0
7.3999999999999995,0.3317999999999659,1.4641000000000033,9.398999999999976,0.003870000000000545,0.0002799999999998755,-0.0043900000000001915,0.0,41.236999999999995,0.18500000000000005,0.0,11.114999999999998,-0.02699999999999994,11.114999999999998,40.00999999999999,0.0
7.416666666666667,0.20077042947025223,1.662888612515854,9.336691196878451,0.0016084315756286747,-0.005962917937824512,0.006801583513425548,0.0,41.42189800024175,0.18393499771295874,0.0,11.14,-0.02697293783035568,11.14,40.10299663299662,0.0
7.433333333333334,0.2052465962613357,1.4770809730219248,10.16333625100955,-7.678691865368201e-05,0.01072032557058757,-0.004532370193044459,0.0,41.60835354349834,0.1840630464934468,0.0,11.165000000000001,-0.026925912552647268,11.165000000000001,40.198013468013464,0.0
7.45,0.0571,1.4673,9.761100000000003,0.0018200000000000004,-0.00355,0.0024800000000000004,0.0,41.795,0.183,0.0,11.19,-0.028000000000000004,11.19,40.28,0.0
7.466666666666667,-0.10697607997301152,1.6120873555619954,10.060282549333321,-0.0025725127009864355,0.005692737124607277,0.003670506234840421,0.0,41.98169656336975,0.18312647037375837,0.0,11.215000000000002,-0.027973064147294575,11.215000000000002,40.37299663299664,0.0
7.483333333333333,0.42567499777850515,1.3732202721422455,10.444883924092913,0.0009710593017243149,-0.005177034415089558,-0.00636466215930586,0.0,42.16865487279416,0.18190063259836037,0.0,11.239999999999998,-0.02792592594439734,11.239999999999998,40.468013468013474,0.0
7.5,-0.07360000000000003,1.5558000000000003,9.7413,0.0011299999999999997,-0.0019700000000000004,0.005559999999999999,0.0,42.35600000000001,0.182,0.0,11.265,-0.029,11.265,40.55,0.0
7.516666666666667,-0.12367741788732647,1.94448447911908,9.559806048766346,-0.005566273098497126,-0.004437649166664219,0.005027828388006423,0.0,42.54434567561555,0.18131526650077076,0.0,11.290000000000001,-0.028973063972823364,11.290000000000001,40.64299663299663,0.0
7.533333333333333,0.17604390099094488,1.4164197737745212,9.742295298317824,0.007360593210834967,0.004245183546865231,0.0017770327900233484,0.0,42.732592627606905,0.18110117451588154,0.0,11.315,-0.028925925925900757,11.315,40.73801346801347,0.0
7.55,0.2087,1.5206,10.149300000000002,0.004890000000000001,0.0032300000000000007,0.015780000000000002,0.0,42.922,0.18,0.0,11.34,-0.03,11.34,40.82000000000001,0.0
7.566666666666666,-0.4492215177637524,1.636642354821208,9.99990481048588,-0.003506504727559686,-0.0011821478671691012,-0.0039952961885328896,0.0,43.110923179863526,0.17999095343856256,0.0,11.365,-0.029973063973038783,11.365,40.91299663299663,0.0
7.583333333333333,0.10899624032992089,1.3615894410423697,10.128901575275766,-0.001371284686829629,-0.004758446108006549,0.00020218144187438583,0.0,43.30098644350532,0.17970086975527547,0.0,11.389999999999997,-0.029925925925685312,11.389999999999997,41.00801346801346,0.0
7.6,0.021600000000000008,1.5911000000000002,9.689899999999998,0.0075099999999999984,0.00325,-0.00293,0.0,43.491,0.17899999999999996,0.0,11.415,-0.031,11.415,41.09,0.0
7.616666666666666,0.10197109365727404,1.402221000701581,10.214670418713478,0.0016964365922187234,4.789018219787101e-05,-0.0011293138164159195,0.0,43.681716547631076,0.17830851805398024,0.0,11.439999999999998,-0.030973063991535505,11.439999999999998,41.18299663299664,0.0
7.633333333333333,0.047292914958605534,1.4074582448880484,9.758930868703304,0.0012010015354318162,0.0017146134649904273,-0.0013923226332194676,0.0,43.87222227453465,0.17809875229432426,0.0,11.465,-0.030925926100157684,11.465,41.27801346801346,0.0
7.6499999999999995,0.15550000000000633,1.4411000000000063,9.841900000000019,-0.002030000000000053,-0.0008899999999995301,-3.0000000000379333e-05,0.0,44.06399999999999,0.17700000000000007,0.0,11.489999999999998,-0.031999999999999945,11.489999999999998,41.36,0.0
7.666666666666667,0.34896082098489,1.3438938780036631,9.954834263183356,-0.0035050695202757387,0.0004759522523978439,0.0007714622369588017,0.0,44.255555594488754,0.17712345696128579,0.0,11.514999999999999,-0.031973050599696955,11.514999999999999,41.45299663299663,0.0
7.683333333333334,0.10087407037885424,1.447893111868434,9.469797631660688,-0.0002727158547993216,-0.002298369211924214,0.0029342198241566813,0.0,44.44838308970376,0.17587654322802257,0.0,11.54,-0.031925799782383975,11.54,41.54801346801347,0.0
7.7,-0.35880000000000006,1.6751000000000003,9.876200000000003,-0.0009499999999999999,-0.0064,0.005270000000000001,0.0,44.641000000000005,0.176,0.0,11.565000000000001,-0.03300000000000001,11.565000000000001,41.63,0.0
7.716666666666667,0.09777229106474965,1.4404816950258157,9.817867480971335,-0.0008442520608266298,0.012569716118763286,0.005834728332541814,0.0,44.83432933880119,0.17490123456767154,0.0,11.590000000000002,-0.03298274627231326,11.590000000000002,41.72299663299664,0.0
7.733333333333333,-0.07379023961839049,1.5016398734713685,9.629761586740582,-0.001045833772243895,-0.0023827114389001823,-0.005078755982411094,0.0,45.02768003920857,0.17469135802472968,0.0,11.615000000000002,-0.03301725367605206,11.615000000000002,41.81801346801346,0.0
7.75,-0.1883,1.2479,10.148300000000003,-0.0010099999999999996,0.00266,-0.0022800000000000003,0.0,45.221000000000004,0.17400000000000002,0.0,11.640000000000002,-0.033,11.640000000000002,41.900000000000006,0.0
7.766666666666667,0.04025229998387826,1.5185811455402376,10.036809513577513,-0.0011856977004715268,-0.0003663481631970125,-0.00017625647880126964,0.0,45.41611422456752,0.1733086419704462,0.0,11.665000000000001,-0.03407420380106338,11.665000000000001,41.992996632996636,0.0
7.783333333333333,-0.41367392000018893,1.4050459022783905,9.893043197788344,-0.002047336744302575,-0.0004904008762525863,-0.0019159996697222842,0.0,45.60982407884524,0.17309876538623145,0.0,11.690000000000001,-0.03402698320037007,11.690000000000001,42.08801346801347,0.0
7.8,0.2113,1.5758,9.8399,0.0017900000000000001,-0.00026999999999999984,-0.006540000000000001,0.0,45.806,0.172,0.0,11.715000000000002,-0.034,11.715000000000002,42.17,0.0
7.816666666666666,-0.12353007199053458,1.6633096745834424,9.57438542965499,-0.0025239461307699795,-0.006655868186230923,0.008841258615853345,0.0,46.00089800024174,0.1721234603107268,0.0,11.74,-0.03507147953557789,11.74,42.262996632996625,0.0
7.833333333333333,0.02233424568483132,1.510637988094144,10.045011362650692,-0.0018412522415790031,-0.007139276376257128,0.005109924268584709,0.0,46.19735354349835,0.17087657641777226,0.0,11.764999999999997,-0.03500246481157502,11.764999999999997,42.35801346801347,0.0
7.85,-0.1961,1.2334,10.027899999999999,0.00155,-0.003089999999999999,0.00182,0.0,46.394,0.171,0.0,11.79,-0.035,11.79,42.44,0.0
7.866666666666666,0.06055685820919282,1.5615885301188905,10.033476453231732,0.0059138074890129535,-4.767759822586293e-05,-0.001108314732490069,0.0,46.59069656336974,0.1698986856559309,0.0,11.815,-0.03569313095906995,11.815,42.53299663299663,0.0
7.883333333333333,-0.055049585449964265,1.7669803471888728,9.552574687542407,0.00022618186962017749,-0.007664984195448022,-0.0037399115260958044,0.0,46.78765487279414,0.1696673155540418,0.0,11.839999999999998,-0.03596627099708793,11.839999999999998,42.628013468013464,0.0
7.8999999999999995,0.21490000000000026,1.4066000000000118,10.167600000000036,0.0010699999999999373,0.003899999999999384,-0.006039999999999976,0.0,46.98499999999999,0.16900000000000004,0.0,11.864999999999998,-0.03600000000000002,11.864999999999998,42.71,0.0
7.916666666666667,-0.34375749369564923,1.41555377859835,9.027914282438655,-0.0042808240623395674,-0.0035759210687074335,-0.0011576885894199179,0.0,47.18334567561554,0.16789479146197592,0.0,11.889999999999999,-0.03669429869032258,11.889999999999999,42.80299663299663,0.0
7.933333333333334,0.3267285830415909,1.7027499064159055,9.765674115888045,0.0007866897476387956,0.007053389436214301,0.00045935395789452213,0.0,47.38159262760691,0.16769066615967843,0.0,11.915000000000001,-0.036972888852317386,11.915000000000001,42.898013468013474,0.0
7.95,0.39699999999999996,1.732,9.878500000000003,0.00079,0.010350000000000002,0.003010000000000001,0.0,47.581,0.167,0.0,11.94,-0.037000000000000005,11.94,42.980000000000004,0.0
7.966666666666667,-0.12990920034569006,1.4439202091177135,10.461290468583899,0.005490961792836078,-0.0021799131021522766,-0.005189220601627518,0.0,47.779923179863545,0.16630933291055258,0.0,11.965000000000002,-0.03689387650666244,11.965000000000002,43.07299663299664,0.0
7.983333333333333,0.2729295373989321,1.3620318521386505,10.13548022432607,-0.002569929530326759,-0.004496004660954252,0.003803942306508673,0.0,47.979986443505325,0.16610519965356507,0.0,11.99,-0.03810664436955868,11.99,43.16801346801347,0.0
8.0,-0.5427,1.8044,10.094900000000003,-0.004740000000000002,-0.0004500000000000003,0.00455,0.0,48.18,0.16500000000000004,0.0,12.015,-0.038,12.015,43.25,0.0
8.016666666666666,-0.30014071527728187,1.596970375725408,9.536475351718988,-0.001630699136165736,0.009748562582636983,-0.0034662254618080947,0.0,48.380716547631074,0.16433336648315183,0.0,12.039999999999996,-0.03799096233793711,12.039999999999996,43.342996632996616,0.0
8.033333333333333,0.29053819197718417,1.4376113674268536,9.473450879467837,0.003278956875495366,-0.005405644535102645,-0.006496176462591806,0.0,48.58122227453466,0.1641077476221903,0.0,12.065000000000001,-0.037927698698297554,12.065000000000001,43.43801346801347,0.0
8.05,0.08710000000000004,1.7954000000000003,10.570000000000002,0.00475,-0.0036300000000000004,0.0008400000000000009,0.0,48.783,0.16300000000000003,0.0,12.09,-0.039,12.09,43.52,0.0
8.066666666666666,-0.43472034629977263,1.4121648027235156,9.789140072047692,0.001849657235651335,-0.002693100430508733,-0.0007616931976677261,0.0,48.98455559448875,0.16233333328754623,0.0,12.114999999999995,-0.03898272416020009,12.114999999999995,43.61299663299662,0.0
8.083333333333334,0.08722317479594632,1.4477862789625093,10.09081267058209,-0.0029174409211085977,-0.003877351924817028,0.004976335127986783,0.0,49.187383089703744,0.1621077441028899,0.0,12.139999999999997,-0.03901727584079351,12.139999999999997,43.708013468013455,0.0
8.1,0.13350000000000006,1.6416,9.7852,-0.00305,0.00309,-0.0057,0.0,49.39,0.161,0.0,12.165,-0.039,12.165,43.790000000000006,0.0
8.116666666666667,-0.0943026377619455,1.757782822821278,10.008427300541461,-0.0073059542899278265,-0.00151311015339467,0.010015063535450832,0.0,49.593329338801205,0.16033333333339636,0.0,12.190000000000003,-0.040072301232745904,12.190000000000003,43.88299663299665,0.0
8.133333333333333,0.3034314038840063,1.4544448859265542,9.382971915396357,0.0036027144515010604,-0.0046023026378405165,-0.002670085829075946,0.0,49.79668003920857,0.16010774410774956,0.0,12.215,-0.04000903701164581,12.215,43.97801346801346,0.0
8.15,0.261,1.5858999999999999,10.056999999999999,-0.0088,-0.0046,-0.00277,0.0,50.0,0.159,0.0,12.239999999999998,-0.04,12.239999999999998,44.06000000000001,0.0
8.166666666666666,-0.02661065477614162,1.5819196228254566,9.944735076668678,-0.002677269847765368,0.0027804070439537325,0.003849026864394587,0.0,50.2051142245675,0.15833333333342853,0.0,12.264999999999997,-0.03989340555397741,12.264999999999997,44.15299663299662,0.0
8.183333333333334,-0.18256699421961525,1.3473533472292853,10.364027989889886,0.0077506965527842885,0.00511964690646128,0.0007865458637648576,0.0,50.40882407884526,0.15810774410864215,0.0,12.289999999999997,-0.0411065943943203,12.289999999999997,44.24801346801346,0.0
8.2,-0.045399999999999996,1.5891,10.053600000000001,-0.0049700000000000005,-0.0077,0.0015200000000000005,0.0,50.615,0.15699999999999997,0.0,12.315,-0.04100000000000001,12.315,44.33,0.0
8.216666666666667,0.09867965864430409,1.3298917330144553,9.779366080255674,0.0021933981460911674,-0.0003823304098107104,-0.008621624468182295,0.0,50.819898000241736,0.15633333326440396,0.0,12.34,-0.04099096657649234,12.34,44.42299663299663,0.0
8.233333333333333,0.2289390777969355,1.405853942301628,9.534818959866131,0.0018585368880453153,0.002243497915802724,-0.006070230648166025,0.0,51.02635354349833,0.1561077434575711,0.0,12.364999999999997,-0.04092773261156561,12.364999999999997,44.51801346801345,0.0
8.25,0.29050000000000004,1.7247000000000001,10.0925,0.0044800000000000005,-0.0010999999999999998,0.0004299999999999997,0.0,51.233000000000004,0.15500000000000003,0.0,12.39,-0.04200000000000001,12.39,44.6,0.0
8.266666666666666,-0.310280722207515,1.4660360450954237,9.99077837380939,-0.006838913847704697,0.0049186615110352475,0.0034263473588707783,0.0,51.43969656336974,0.1543333832381393,0.0,12.414999999999997,-0.0419801263989043,12.414999999999997,44.692996632996625,0.0
8.283333333333333,-0.24591792334110343,1.648451685652388,9.648778400380154,-0.005061403497246432,0.005109713904118471,-0.0021451121480364115,0.0,51.646654872794166,0.15410821483205553,0.0,12.440000000000001,-0.04199277260997302,12.440000000000001,44.788013468013474,0.0
8.3,-0.12460000000000002,1.6282000000000003,9.601600000000001,0.0034900000000000005,-0.00455,0.01061,0.0,51.854,0.15300000000000002,0.0,12.465000000000002,-0.042,12.465000000000002,44.87,0.0
8.316666666666666,-0.6549552989471565,1.618741247500174,10.092369059528588,0.0012468942590000188,-0.004983048023775361,0.0015705810902868099,0.0,52.06234567561553,0.15229720232276228,0.0,12.489999999999997,-0.042693816913088885,12.489999999999997,44.962996632996614,0.0
8.333333333333334,0.2889300137573813,1.4667663860990576,9.695533979722581,0.000500187711045465,0.003086598464923712,-0.006453018618509881,0.0,52.2705926276069,0.15172990331941946,0.0,12.514999999999999,-0.042971564434634436,12.514999999999999,45.05801346801346,0.0
8.35,-0.18699999999999994,1.8630000000000002,9.7172,-0.0016700000000000005,0.0016600000000000005,0.0026400000000000004,0.0,52.480000000000004,0.151,0.0,12.540000000000003,-0.043,12.540000000000003,45.14,0.0
8.366666666666667,-0.06432358078246296,1.0633600240423053,10.165589194106458,-0.0002088259646387495,0.0013073669616409061,0.0005307210511908526,0.0,52.68892317986355,0.15026991285978747,0.0,12.565000000000003,-0.042992724820985345,12.565000000000003,45.232996632996645,0.0
8.383333333333333,0.42170277782699306,1.503481074920612,9.941298058294,-0.00014672152173035967,0.006486330824122015,0.0016950363940066103,0.0,52.898986443505315,0.14970104116743949,0.0,12.590000000000003,-0.04292791004801874,12.590000000000003,45.328013468013474,0.0
8.4,-0.3368999999999999,1.6188999999999998,10.270699999999998,-0.0026,0.0019599999999999995,-0.00249,0.0,53.10900000000001,0.14899999999999997,0.0,12.614999999999998,-0.04399999999999999,12.614999999999998,45.41,0.0
8.416666666666666,0.06683889653050788,1.7349976421708517,9.997261814802256,-0.002928006971849689,0.004115293721531751,-0.001694474004068098,0.0,53.31971654763107,0.14802662793177362,0.0,12.639999999999997,-0.04398082010092828,12.639999999999997,45.50299663299663,0.0
8.433333333333334,0.33578106168065214,1.8338538898935395,9.474297741404856,-0.0007541763485035327,0.001058773758565429,-0.004767775086432797,0.0,53.53022227453466,0.14686443960265097,0.0,12.665,-0.04399933857759473,12.665,45.59801346801347,0.0
8.45,0.2263,1.5214,9.6576,0.009660000000000002,-0.0033400000000000005,-0.009700000000000002,0.0,53.742000000000004,0.147,0.0,12.690000000000001,-0.044,12.690000000000001,45.68,0.0
8.466666666666667,0.05947360380208502,1.5926174146240775,9.878501333534302,0.0001706883986602991,-0.0016300213502920087,0.00016882826450266062,0.0,53.953555594488755,0.14604405712867324,0.0,12.715,-0.0438935221069274,12.715,45.77299663299663,0.0
8.483333333333333,0.033108565406990156,1.1776026421496866,9.618737164657192,0.004897064504625899,-0.0027874209148914205,-0.0013447627059004783,0.0,54.16638308970373,0.14496320503174445,0.0,12.739999999999997,-0.045106515328949874,12.739999999999997,45.86801346801346,0.0
8.5,-0.31710000000000005,0.97,10.4757,-0.010210000000000002,-0.00702,0.00287,0.0,54.379,0.144,0.0,12.765,-0.045,12.765,45.95000000000002,0.0
8.516666666666666,-0.24109471590097412,1.460264540371457,9.76076159522228,-1.2245509883691762e-05,-0.001977243517704657,-0.005230152458307442,0.0,54.592329338801164,0.1433352701680622,0.0,12.789999999999997,-0.04499806337252113,12.789999999999997,46.04299663299662,0.0
8.533333333333333,0.025943509584073866,1.6896702307023457,9.751713565395107,0.00042317870335749157,-0.004709364709345577,0.005687455639651764,0.0,54.805680039208575,0.1431084507476682,0.0,12.815,-0.04499467437379576,12.815,46.138013468013476,0.0
8.55,0.5888000000000001,1.3575000000000002,10.1783,-0.005590000000000001,-0.004750000000000001,-0.00527,0.0,55.019000000000005,0.14200000000000002,0.0,12.840000000000002,-0.045,12.840000000000002,46.220000000000006,0.0
8.566666666666666,0.15777848632338057,1.2679442453268146,9.975096318126356,-0.0033867910946785737,0.003346180020346521,0.007782662661372382,0.0,55.2341142245675,0.14129441526842024,0.0,12.864999999999997,-0.045693781372953705,12.864999999999997,46.31299663299663,0.0
8.583333333333334,-0.22324654131249888,1.3970984774874058,9.7222785263281,0.0036822950051684164,0.005891174184959645,0.0005909536722115292,0.0,55.447824078845244,0.14070363884163875,0.0,12.889999999999999,-0.04597146026514312,12.889999999999999,46.40801346801346,0.0
8.6,0.2278,1.4236,10.1074,0.0030899999999999994,0.00695,0.0033999999999999994,0.0,55.664,0.14,0.0,12.915,-0.046,12.915,46.49,0.0
8.616666666666667,-0.046229382231053745,1.6584907319188957,9.24218926650442,-0.0017828537951317769,-0.001097831953695642,-0.003925762523722967,0.0,55.87889800024177,0.13902659401423384,0.0,12.940000000000003,-0.04600051890524211,12.940000000000003,46.58299663299665,0.0
8.633333333333333,0.12789684508417992,1.2616357721273208,9.707411150832684,-0.0064477254085942275,0.007042217761533327,0.00029949308673278953,0.0,56.09535354349834,0.13786443531321074,0.0,12.964999999999998,-0.04600142699591256,12.964999999999998,46.67801346801347,0.0
